"","run_id","condition","view_history","rt","trial_type","trial_index","time_elapsed","internal_node_id","response","question_order","stimulus","slider_start","recorded_at","user_agent","device","browser","browser_version","platform","platform_version","source_code_version"
"1",10,1,"[{""page_index"":0,""viewing_time"":1038267.7999999821},{""page_index"":1,""viewing_time"":59722.40000000596},{""page_index"":2,""viewing_time"":2978.199999988079}]",1100969.79999998,"instructions",0,1101048,"0.0-0.0","""","""","""","""","2021-08-10 18:33:17","Mozilla/5.0 (Macintosh; Intel Mac OS X 10_15_7) AppleWebKit/537.36 (KHTML, like Gecko) Chrome/92.0.4515.107 Safari/537.36","Macintosh","Chrome","92.0.4515.107","OS X","10_15_7","c2ec3e1d97c081aeb487e375c8af45d6"
"2",10,1,"[{""page_index"":0,""viewing_time"":3645.699999988079}]",3646.19999998808,"instructions",1,1104702,"0.0-1.0","""","""","""","""","2021-08-10 18:33:17","Mozilla/5.0 (Macintosh; Intel Mac OS X 10_15_7) AppleWebKit/537.36 (KHTML, like Gecko) Chrome/92.0.4515.107 Safari/537.36","Macintosh","Chrome","92.0.4515.107","OS X","10_15_7","c2ec3e1d97c081aeb487e375c8af45d6"
"3",10,1,"""",288062.700000018,"survey-likert",2,1392791,"0.0-2.0","{""rp_name_relation"":2,""rp_name_abref"":0,""ap_to_rp"":0,""ap_lose"":6,""ap_name_relation"":6,""rp_lose"":2,""ap_id_interval"":1,""rp_id_440"":4,""ap_produce_interval"":3,""rp_remember_group"":3,""rp_to_ap"":0,""rp_produce_440"":3,""ap_produce_abref"":6,""ap_ref_tonal"":6,""rp_id_interval"":6,""rp_produce_interval"":6,""ap_remember_group"":4,""rp_ref_tonal"":6,""rp_produce_abref"":0,""ap_produce_440"":0,""ap_produce_tonality"":6,""ap_name_abref"":6,""ap_perceive_same"":1,""rp_produce_tonality"":6,""rp_perceive_same"":6,""ap_id_440"":0}","[5,9,21,27,19,12,17,7,18,11,13,8,25,2,3,4,14,26,0,10,23,16,24,20,1,15,6,22]","""","""","2021-08-10 18:33:17","Mozilla/5.0 (Macintosh; Intel Mac OS X 10_15_7) AppleWebKit/537.36 (KHTML, like Gecko) Chrome/92.0.4515.107 Safari/537.36","Macintosh","Chrome","92.0.4515.107","OS X","10_15_7","c2ec3e1d97c081aeb487e375c8af45d6"
"4",10,1,"""",53812.5,"survey-text",3,1446620,"0.0-3.0","{""Q0"":""Not applicable.""}","""","""","""","2021-08-10 18:33:17","Mozilla/5.0 (Macintosh; Intel Mac OS X 10_15_7) AppleWebKit/537.36 (KHTML, like Gecko) Chrome/92.0.4515.107 Safari/537.36","Macintosh","Chrome","92.0.4515.107","OS X","10_15_7","c2ec3e1d97c081aeb487e375c8af45d6"
"5",10,1,"""",14436.2000000179,"survey-text",4,1461063,"0.0-4.0","{""Q0"":""Not applicable.""}","""","""","""","2021-08-10 18:33:17","Mozilla/5.0 (Macintosh; Intel Mac OS X 10_15_7) AppleWebKit/537.36 (KHTML, like Gecko) Chrome/92.0.4515.107 Safari/537.36","Macintosh","Chrome","92.0.4515.107","OS X","10_15_7","c2ec3e1d97c081aeb487e375c8af45d6"
"6",10,1,"[{""page_index"":0,""viewing_time"":1844.6000000238419}]",1845.5,"instructions",5,1462912,"0.0-5.0","""","""","""","""","2021-08-10 18:33:17","Mozilla/5.0 (Macintosh; Intel Mac OS X 10_15_7) AppleWebKit/537.36 (KHTML, like Gecko) Chrome/92.0.4515.107 Safari/537.36","Macintosh","Chrome","92.0.4515.107","OS X","10_15_7","c2ec3e1d97c081aeb487e375c8af45d6"
"7",10,1,"""",120474.799999982,"survey-likert",6,1583399,"0.0-6.0","{""rp_better_others"":6,""rp_override"":6,""re_people_al"":2,""rp_trained_ap"":4,""ap_override"":6,""ap_better_others"":6,""ap_trained_ap"":3,""rp_normal"":4,""ap_impaired"":5,""ap_tonedeaf"":0,""rp_tonedeaf"":4,""ap_normal"":2,""rp_impaired"":1,""ap_people_all"":0}","[6,2,0,3,9,13,10,5,8,11,4,12,1,7]","""","""","2021-08-10 18:33:17","Mozilla/5.0 (Macintosh; Intel Mac OS X 10_15_7) AppleWebKit/537.36 (KHTML, like Gecko) Chrome/92.0.4515.107 Safari/537.36","Macintosh","Chrome","92.0.4515.107","OS X","10_15_7","c2ec3e1d97c081aeb487e375c8af45d6"
"8",10,1,"[{""page_index"":0,""viewing_time"":4751.5}]",4751.80000001192,"instructions",7,1588158,"0.0-7.0","""","""","""","""","2021-08-10 18:33:17","Mozilla/5.0 (Macintosh; Intel Mac OS X 10_15_7) AppleWebKit/537.36 (KHTML, like Gecko) Chrome/92.0.4515.107 Safari/537.36","Macintosh","Chrome","92.0.4515.107","OS X","10_15_7","c2ec3e1d97c081aeb487e375c8af45d6"
"9",10,1,"[{""page_index"":0,""viewing_time"":3958.300000011921}]",3958.59999999404,"instructions",8,1592118,"0.0-8.0","""","""","""","""","2021-08-10 18:33:17","Mozilla/5.0 (Macintosh; Intel Mac OS X 10_15_7) AppleWebKit/537.36 (KHTML, like Gecko) Chrome/92.0.4515.107 Safari/537.36","Macintosh","Chrome","92.0.4515.107","OS X","10_15_7","c2ec3e1d97c081aeb487e375c8af45d6"
"10",10,1,"[{""page_index"":0,""viewing_time"":22495.69999998808}]",22496.099999994,"instructions",9,1614617,"0.0-9.0","""","""","""","""","2021-08-10 18:33:17","Mozilla/5.0 (Macintosh; Intel Mac OS X 10_15_7) AppleWebKit/537.36 (KHTML, like Gecko) Chrome/92.0.4515.107 Safari/537.36","Macintosh","Chrome","92.0.4515.107","OS X","10_15_7","c2ec3e1d97c081aeb487e375c8af45d6"
"11",10,1,"""",31176,"survey-text",10,1645798,"0.0-10.0","{""Q0"":""Sing on scale-degree numbers.""}","""","""","""","2021-08-10 18:33:17","Mozilla/5.0 (Macintosh; Intel Mac OS X 10_15_7) AppleWebKit/537.36 (KHTML, like Gecko) Chrome/92.0.4515.107 Safari/537.36","Macintosh","Chrome","92.0.4515.107","OS X","10_15_7","c2ec3e1d97c081aeb487e375c8af45d6"
"12",10,1,"""",21750.900000006,"survey-likert",11,1667556,"0.0-11.0","{""rp_ac_rate"":6}","[0,1,2,3,4]","""","""","2021-08-10 18:33:17","Mozilla/5.0 (Macintosh; Intel Mac OS X 10_15_7) AppleWebKit/537.36 (KHTML, like Gecko) Chrome/92.0.4515.107 Safari/537.36","Macintosh","Chrome","92.0.4515.107","OS X","10_15_7","c2ec3e1d97c081aeb487e375c8af45d6"
"13",10,1,"""",8455.59999999404,"survey-text",12,1676024,"0.0-12.0","{""Q0"":""}","""","""","""","2021-08-10 18:33:17","Mozilla/5.0 (Macintosh; Intel Mac OS X 10_15_7) AppleWebKit/537.36 (KHTML, like Gecko) Chrome/92.0.4515.107 Safari/537.36","Macintosh","Chrome","92.0.4515.107","OS X","10_15_7","c2ec3e1d97c081aeb487e375c8af45d6"
"14",10,1,"""",3252,"survey-likert",13,1679282,"0.0-13.0","{""rp_ac_rate"":""}","[0,1,2,3,4]","""","""","2021-08-10 18:33:17","Mozilla/5.0 (Macintosh; Intel Mac OS X 10_15_7) AppleWebKit/537.36 (KHTML, like Gecko) Chrome/92.0.4515.107 Safari/537.36","Macintosh","Chrome","92.0.4515.107","OS X","10_15_7","c2ec3e1d97c081aeb487e375c8af45d6"
"15",10,1,"""",11076.099999994,"survey-text",14,1690366,"0.0-14.0","{""Q0"":""Take dictation on scale-degree numbers.""}","""","""","""","2021-08-10 18:33:17","Mozilla/5.0 (Macintosh; Intel Mac OS X 10_15_7) AppleWebKit/537.36 (KHTML, like Gecko) Chrome/92.0.4515.107 Safari/537.36","Macintosh","Chrome","92.0.4515.107","OS X","10_15_7","c2ec3e1d97c081aeb487e375c8af45d6"
"16",10,1,"""",12564.900000006,"survey-likert",15,1702938,"0.0-15.0","{""rp_ac_rate"":6}","[0,1,2,3,4]","""","""","2021-08-10 18:33:17","Mozilla/5.0 (Macintosh; Intel Mac OS X 10_15_7) AppleWebKit/537.36 (KHTML, like Gecko) Chrome/92.0.4515.107 Safari/537.36","Macintosh","Chrome","92.0.4515.107","OS X","10_15_7","c2ec3e1d97c081aeb487e375c8af45d6"
"17",10,1,"""",1196.5,"survey-text",16,1704145,"0.0-16.0","{""Q0"":""}","""","""","""","2021-08-10 18:33:17","Mozilla/5.0 (Macintosh; Intel Mac OS X 10_15_7) AppleWebKit/537.36 (KHTML, like Gecko) Chrome/92.0.4515.107 Safari/537.36","Macintosh","Chrome","92.0.4515.107","OS X","10_15_7","c2ec3e1d97c081aeb487e375c8af45d6"
"18",10,1,"""",2498.09999999404,"survey-likert",17,1706650,"0.0-17.0","{""rp_ac_rate"":""}","[0,1,2,3,4]","""","""","2021-08-10 18:33:17","Mozilla/5.0 (Macintosh; Intel Mac OS X 10_15_7) AppleWebKit/537.36 (KHTML, like Gecko) Chrome/92.0.4515.107 Safari/537.36","Macintosh","Chrome","92.0.4515.107","OS X","10_15_7","c2ec3e1d97c081aeb487e375c8af45d6"
"19",10,1,"""",3867.19999998808,"survey-text",18,1710528,"0.0-18.0","{""Q0"":""}","""","""","""","2021-08-10 18:33:17","Mozilla/5.0 (Macintosh; Intel Mac OS X 10_15_7) AppleWebKit/537.36 (KHTML, like Gecko) Chrome/92.0.4515.107 Safari/537.36","Macintosh","Chrome","92.0.4515.107","OS X","10_15_7","c2ec3e1d97c081aeb487e375c8af45d6"
"20",10,1,"""",3193.5,"survey-likert",19,1713726,"0.0-19.0","{""rp_ac_rate"":""}","[0,1,2,3,4]","""","""","2021-08-10 18:33:17","Mozilla/5.0 (Macintosh; Intel Mac OS X 10_15_7) AppleWebKit/537.36 (KHTML, like Gecko) Chrome/92.0.4515.107 Safari/537.36","Macintosh","Chrome","92.0.4515.107","OS X","10_15_7","c2ec3e1d97c081aeb487e375c8af45d6"
"21",10,1,"[{""page_index"":0,""viewing_time"":1969.6000000238419}]",1970.30000001192,"instructions",20,1715705,"0.0-20.0","""","""","""","""","2021-08-10 18:33:17","Mozilla/5.0 (Macintosh; Intel Mac OS X 10_15_7) AppleWebKit/537.36 (KHTML, like Gecko) Chrome/92.0.4515.107 Safari/537.36","Macintosh","Chrome","92.0.4515.107","OS X","10_15_7","c2ec3e1d97c081aeb487e375c8af45d6"
"22",10,1,"""",88913.400000006,"survey-text",21,1804625,"0.0-21.0","{""Q0"":""Sing A at the start of class.""}","""","""","""","2021-08-10 18:33:17","Mozilla/5.0 (Macintosh; Intel Mac OS X 10_15_7) AppleWebKit/537.36 (KHTML, like Gecko) Chrome/92.0.4515.107 Safari/537.36","Macintosh","Chrome","92.0.4515.107","OS X","10_15_7","c2ec3e1d97c081aeb487e375c8af45d6"
"23",10,1,"""",48202.1000000238,"survey-likert",22,1852836,"0.0-22.0","{""rp_ac_rate"":3}","[0,1,2,3,4]","""","""","2021-08-10 18:33:17","Mozilla/5.0 (Macintosh; Intel Mac OS X 10_15_7) AppleWebKit/537.36 (KHTML, like Gecko) Chrome/92.0.4515.107 Safari/537.36","Macintosh","Chrome","92.0.4515.107","OS X","10_15_7","c2ec3e1d97c081aeb487e375c8af45d6"
"24",10,1,"""",17891.900000006,"survey-text",23,1870739,"0.0-23.0","{""Q0"":""Teaching C-clefs.""}","""","""","""","2021-08-10 18:33:17","Mozilla/5.0 (Macintosh; Intel Mac OS X 10_15_7) AppleWebKit/537.36 (KHTML, like Gecko) Chrome/92.0.4515.107 Safari/537.36","Macintosh","Chrome","92.0.4515.107","OS X","10_15_7","c2ec3e1d97c081aeb487e375c8af45d6"
"25",10,1,"""",18750.8000000119,"survey-likert",24,1889497,"0.0-24.0","{""rp_ac_rate"":4}","[0,1,2,3,4]","""","""","2021-08-10 18:33:17","Mozilla/5.0 (Macintosh; Intel Mac OS X 10_15_7) AppleWebKit/537.36 (KHTML, like Gecko) Chrome/92.0.4515.107 Safari/537.36","Macintosh","Chrome","92.0.4515.107","OS X","10_15_7","c2ec3e1d97c081aeb487e375c8af45d6"
"26",10,1,"""",3653.19999998808,"survey-text",25,1893161,"0.0-25.0","{""Q0"":""}","""","""","""","2021-08-10 18:33:17","Mozilla/5.0 (Macintosh; Intel Mac OS X 10_15_7) AppleWebKit/537.36 (KHTML, like Gecko) Chrome/92.0.4515.107 Safari/537.36","Macintosh","Chrome","92.0.4515.107","OS X","10_15_7","c2ec3e1d97c081aeb487e375c8af45d6"
"27",10,1,"""",4786.5,"survey-likert",26,1897955,"0.0-26.0","{""rp_ac_rate"":""}","[0,1,2,3,4]","""","""","2021-08-10 18:33:17","Mozilla/5.0 (Macintosh; Intel Mac OS X 10_15_7) AppleWebKit/537.36 (KHTML, like Gecko) Chrome/92.0.4515.107 Safari/537.36","Macintosh","Chrome","92.0.4515.107","OS X","10_15_7","c2ec3e1d97c081aeb487e375c8af45d6"
"28",10,1,"""",2099.5,"survey-text",27,1900063,"0.0-27.0","{""Q0"":""}","""","""","""","2021-08-10 18:33:17","Mozilla/5.0 (Macintosh; Intel Mac OS X 10_15_7) AppleWebKit/537.36 (KHTML, like Gecko) Chrome/92.0.4515.107 Safari/537.36","Macintosh","Chrome","92.0.4515.107","OS X","10_15_7","c2ec3e1d97c081aeb487e375c8af45d6"
"29",10,1,"""",12107.599999994,"survey-likert",28,1912178,"0.0-28.0","{""rp_ac_rate"":""}","[0,1,2,3,4]","""","""","2021-08-10 18:33:17","Mozilla/5.0 (Macintosh; Intel Mac OS X 10_15_7) AppleWebKit/537.36 (KHTML, like Gecko) Chrome/92.0.4515.107 Safari/537.36","Macintosh","Chrome","92.0.4515.107","OS X","10_15_7","c2ec3e1d97c081aeb487e375c8af45d6"
"30",10,1,"""",49398.7000000179,"survey-text",29,1961588,"0.0-29.0","{""Q0"":""}","""","""","""","2021-08-10 18:33:17","Mozilla/5.0 (Macintosh; Intel Mac OS X 10_15_7) AppleWebKit/537.36 (KHTML, like Gecko) Chrome/92.0.4515.107 Safari/537.36","Macintosh","Chrome","92.0.4515.107","OS X","10_15_7","c2ec3e1d97c081aeb487e375c8af45d6"
"31",10,1,"""",4490.40000000596,"survey-likert",30,1966088,"0.0-30.0","{""rp_ac_rate"":""}","[0,1,2,3,4]","""","""","2021-08-10 18:33:17","Mozilla/5.0 (Macintosh; Intel Mac OS X 10_15_7) AppleWebKit/537.36 (KHTML, like Gecko) Chrome/92.0.4515.107 Safari/537.36","Macintosh","Chrome","92.0.4515.107","OS X","10_15_7","c2ec3e1d97c081aeb487e375c8af45d6"
"32",10,1,"""",143862.400000006,"survey-text",31,2109964,"0.0-31.0","{""Q0"":""}","""","""","""","2021-08-10 18:33:17","Mozilla/5.0 (Macintosh; Intel Mac OS X 10_15_7) AppleWebKit/537.36 (KHTML, like Gecko) Chrome/92.0.4515.107 Safari/537.36","Macintosh","Chrome","92.0.4515.107","OS X","10_15_7","c2ec3e1d97c081aeb487e375c8af45d6"
"33",10,1,"""",15876.400000006,"html-slider-response",32,2125847,"0.0-32.0","92","""","<p></p>","50","2021-08-10 18:33:17","Mozilla/5.0 (Macintosh; Intel Mac OS X 10_15_7) AppleWebKit/537.36 (KHTML, like Gecko) Chrome/92.0.4515.107 Safari/537.36","Macintosh","Chrome","92.0.4515.107","OS X","10_15_7","c2ec3e1d97c081aeb487e375c8af45d6"
"34",10,1,"""",7194.59999999404,"survey-text",33,2133046,"0.0-33.0","{""Q0"":""}","""","""","""","2021-08-10 18:33:17","Mozilla/5.0 (Macintosh; Intel Mac OS X 10_15_7) AppleWebKit/537.36 (KHTML, like Gecko) Chrome/92.0.4515.107 Safari/537.36","Macintosh","Chrome","92.0.4515.107","OS X","10_15_7","c2ec3e1d97c081aeb487e375c8af45d6"
"35",10,1,"""",88643.400000006,"survey-text",34,2221698,"0.0-34.0","{""Q0"":""Singing and dictation on scale-degree numbers.""}","""","""","""","2021-08-10 18:33:17","Mozilla/5.0 (Macintosh; Intel Mac OS X 10_15_7) AppleWebKit/537.36 (KHTML, like Gecko) Chrome/92.0.4515.107 Safari/537.36","Macintosh","Chrome","92.0.4515.107","OS X","10_15_7","c2ec3e1d97c081aeb487e375c8af45d6"
"36",10,1,"""",4430,"html-slider-response",35,2226130,"0.0-35.0","55","""","<p></p>","50","2021-08-10 18:33:17","Mozilla/5.0 (Macintosh; Intel Mac OS X 10_15_7) AppleWebKit/537.36 (KHTML, like Gecko) Chrome/92.0.4515.107 Safari/537.36","Macintosh","Chrome","92.0.4515.107","OS X","10_15_7","c2ec3e1d97c081aeb487e375c8af45d6"
"37",10,1,"[{""page_index"":0,""viewing_time"":8627.5}]",8628,"instructions",36,2234763,"0.0-36.0","""","""","""","""","2021-08-10 18:33:17","Mozilla/5.0 (Macintosh; Intel Mac OS X 10_15_7) AppleWebKit/537.36 (KHTML, like Gecko) Chrome/92.0.4515.107 Safari/537.36","Macintosh","Chrome","92.0.4515.107","OS X","10_15_7","c2ec3e1d97c081aeb487e375c8af45d6"
"38",10,1,"[{""page_index"":0,""viewing_time"":4536.299999982119}]",4536.69999998808,"instructions",37,2239300,"0.0-37.0","""","""","""","""","2021-08-10 18:33:17","Mozilla/5.0 (Macintosh; Intel Mac OS X 10_15_7) AppleWebKit/537.36 (KHTML, like Gecko) Chrome/92.0.4515.107 Safari/537.36","Macintosh","Chrome","92.0.4515.107","OS X","10_15_7","c2ec3e1d97c081aeb487e375c8af45d6"
"39",10,1,"""",41681,"survey-multi-select",38,2280997,"0.0-38.0","{""Colors"":[""Music theory (Graduate, Written)"",""Music theory (Graduate , Aural)""]}","[0]","""","""","2021-08-10 18:33:17","Mozilla/5.0 (Macintosh; Intel Mac OS X 10_15_7) AppleWebKit/537.36 (KHTML, like Gecko) Chrome/92.0.4515.107 Safari/537.36","Macintosh","Chrome","92.0.4515.107","OS X","10_15_7","c2ec3e1d97c081aeb487e375c8af45d6"
"40",10,1,"""",21360.099999994,"survey-text",39,2302370,"0.0-39.0","{""Q0"":""40""}","""","""","""","2021-08-10 18:33:17","Mozilla/5.0 (Macintosh; Intel Mac OS X 10_15_7) AppleWebKit/537.36 (KHTML, like Gecko) Chrome/92.0.4515.107 Safari/537.36","Macintosh","Chrome","92.0.4515.107","OS X","10_15_7","c2ec3e1d97c081aeb487e375c8af45d6"
"41",10,1,"""",4938.40000000596,"survey-multi-select",40,2307321,"0.0-40.0","{""Colors"":[""Ph.D. in Music Theory""]}","[0]","""","""","2021-08-10 18:33:17","Mozilla/5.0 (Macintosh; Intel Mac OS X 10_15_7) AppleWebKit/537.36 (KHTML, like Gecko) Chrome/92.0.4515.107 Safari/537.36","Macintosh","Chrome","92.0.4515.107","OS X","10_15_7","c2ec3e1d97c081aeb487e375c8af45d6"
"42",10,1,"""",31938.7000000179,"survey-text",41,2339268,"0.0-41.0","{""Q0"":""32""}","""","""","""","2021-08-10 18:33:17","Mozilla/5.0 (Macintosh; Intel Mac OS X 10_15_7) AppleWebKit/537.36 (KHTML, like Gecko) Chrome/92.0.4515.107 Safari/537.36","Macintosh","Chrome","92.0.4515.107","OS X","10_15_7","c2ec3e1d97c081aeb487e375c8af45d6"
"43",10,1,"""",10984.3000000119,"survey-multi-select",42,2350257,"0.0-42.0","{""Colors"":[""Private institution"",""Conservatory-style professional music school (within a university)"",""NASM-accredited music program""]}","[0]","""","""","2021-08-10 18:33:17","Mozilla/5.0 (Macintosh; Intel Mac OS X 10_15_7) AppleWebKit/537.36 (KHTML, like Gecko) Chrome/92.0.4515.107 Safari/537.36","Macintosh","Chrome","92.0.4515.107","OS X","10_15_7","c2ec3e1d97c081aeb487e375c8af45d6"
"44",10,1,"""",10674,"survey-multi-select",43,2360944,"0.0-43.0","{""Colors"":[""Full-Time Tenured""]}","[0]","""","""","2021-08-10 18:33:17","Mozilla/5.0 (Macintosh; Intel Mac OS X 10_15_7) AppleWebKit/537.36 (KHTML, like Gecko) Chrome/92.0.4515.107 Safari/537.36","Macintosh","Chrome","92.0.4515.107","OS X","10_15_7","c2ec3e1d97c081aeb487e375c8af45d6"
"45",10,1,"[{""page_index"":0,""viewing_time"":9081.40000000596}]",9081.90000000596,"instructions",44,2370037,"0.0-44.0","""","""","""","""","2021-08-10 18:33:17","Mozilla/5.0 (Macintosh; Intel Mac OS X 10_15_7) AppleWebKit/537.36 (KHTML, like Gecko) Chrome/92.0.4515.107 Safari/537.36","Macintosh","Chrome","92.0.4515.107","OS X","10_15_7","c2ec3e1d97c081aeb487e375c8af45d6"
"46",10,1,"""",9095.40000000596,"survey-text",45,2379138,"0.0-45.0","{""Q0"":""18""}","""","""","""","2021-08-10 18:33:17","Mozilla/5.0 (Macintosh; Intel Mac OS X 10_15_7) AppleWebKit/537.36 (KHTML, like Gecko) Chrome/92.0.4515.107 Safari/537.36","Macintosh","Chrome","92.0.4515.107","OS X","10_15_7","c2ec3e1d97c081aeb487e375c8af45d6"
"47",10,1,"""",45056.5,"survey-multi-select",46,2424209,"0.0-46.0","{""Colors"":[""Moveable-Do (La-based minor)"",""Fixed Do without inflections""]}","[0]","""","""","2021-08-10 18:33:17","Mozilla/5.0 (Macintosh; Intel Mac OS X 10_15_7) AppleWebKit/537.36 (KHTML, like Gecko) Chrome/92.0.4515.107 Safari/537.36","Macintosh","Chrome","92.0.4515.107","OS X","10_15_7","c2ec3e1d97c081aeb487e375c8af45d6"
"48",10,1,"""",15569.1999999881,"survey-multi-select",47,2439796,"0.0-47.0","{""Colors"":[""Scale-degree numbers without inflections (e.g. An F# in the key of C is sung as Fa)""]}","[0]","""","""","2021-08-10 18:33:17","Mozilla/5.0 (Macintosh; Intel Mac OS X 10_15_7) AppleWebKit/537.36 (KHTML, like Gecko) Chrome/92.0.4515.107 Safari/537.36","Macintosh","Chrome","92.0.4515.107","OS X","10_15_7","c2ec3e1d97c081aeb487e375c8af45d6"
"49",10,1,"""",13250.3000000119,"survey-multi-select",48,2453060,"0.0-48.0","{""Colors"":[""Fixed Do without inflections""]}","[0]","""","""","2021-08-10 18:33:17","Mozilla/5.0 (Macintosh; Intel Mac OS X 10_15_7) AppleWebKit/537.36 (KHTML, like Gecko) Chrome/92.0.4515.107 Safari/537.36","Macintosh","Chrome","92.0.4515.107","OS X","10_15_7","c2ec3e1d97c081aeb487e375c8af45d6"
"50",10,1,"""",9075.5,"survey-multi-select",49,2462150,"0.0-49.0","{""Colors"":[""Scale-degree numbers without inflections""]}","[0]","""","""","2021-08-10 18:33:17","Mozilla/5.0 (Macintosh; Intel Mac OS X 10_15_7) AppleWebKit/537.36 (KHTML, like Gecko) Chrome/92.0.4515.107 Safari/537.36","Macintosh","Chrome","92.0.4515.107","OS X","10_15_7","c2ec3e1d97c081aeb487e375c8af45d6"
"51",10,1,"""",21371.1999999881,"survey-text",50,2483535,"0.0-50.0","{""Q0"":""10""}","""","""","""","2021-08-10 18:33:17","Mozilla/5.0 (Macintosh; Intel Mac OS X 10_15_7) AppleWebKit/537.36 (KHTML, like Gecko) Chrome/92.0.4515.107 Safari/537.36","Macintosh","Chrome","92.0.4515.107","OS X","10_15_7","c2ec3e1d97c081aeb487e375c8af45d6"
"52",10,1,"""",13129.6000000238,"survey-likert",51,2496668,"0.0-51.0","{""often"":2,""rp"":4}","[0,1]","""","""","2021-08-10 18:33:17","Mozilla/5.0 (Macintosh; Intel Mac OS X 10_15_7) AppleWebKit/537.36 (KHTML, like Gecko) Chrome/92.0.4515.107 Safari/537.36","Macintosh","Chrome","92.0.4515.107","OS X","10_15_7","c2ec3e1d97c081aeb487e375c8af45d6"
"53",10,1,"""",7794.40000000596,"survey-likert",52,2504470,"0.0-52.0","{""often"":1,""rp"":4}","[0,1]","""","""","2021-08-10 18:33:17","Mozilla/5.0 (Macintosh; Intel Mac OS X 10_15_7) AppleWebKit/537.36 (KHTML, like Gecko) Chrome/92.0.4515.107 Safari/537.36","Macintosh","Chrome","92.0.4515.107","OS X","10_15_7","c2ec3e1d97c081aeb487e375c8af45d6"
"54",10,1,"""",46929.7000000179,"survey-multi-choice",53,2551417,"0.0-53.0","{""theory_track"":""Yes"",""pitch_mem"":""Yes"",""score_transp"":""Yes""}","[0,1,2]","""","""","2021-08-10 18:33:17","Mozilla/5.0 (Macintosh; Intel Mac OS X 10_15_7) AppleWebKit/537.36 (KHTML, like Gecko) Chrome/92.0.4515.107 Safari/537.36","Macintosh","Chrome","92.0.4515.107","OS X","10_15_7","c2ec3e1d97c081aeb487e375c8af45d6"
"55",10,1,"""",76796.5,"survey-multi-select",54,2628238,"0.0-54.0","{""Colors"":[""Private college or university"",""Conservatory-style professional music school (within a university)""]}","[0]","""","""","2021-08-10 18:33:17","Mozilla/5.0 (Macintosh; Intel Mac OS X 10_15_7) AppleWebKit/537.36 (KHTML, like Gecko) Chrome/92.0.4515.107 Safari/537.36","Macintosh","Chrome","92.0.4515.107","OS X","10_15_7","c2ec3e1d97c081aeb487e375c8af45d6"
"56",10,1,"""",7682.5,"survey-text",55,2635933,"0.0-55.0","{""Q0"":""900""}","""","""","""","2021-08-10 18:33:17","Mozilla/5.0 (Macintosh; Intel Mac OS X 10_15_7) AppleWebKit/537.36 (KHTML, like Gecko) Chrome/92.0.4515.107 Safari/537.36","Macintosh","Chrome","92.0.4515.107","OS X","10_15_7","c2ec3e1d97c081aeb487e375c8af45d6"
"57",10,1,"""",17261.5,"survey-multi-select",56,2653205,"0.0-56.0","{""Colors"":[""Certificate (e.g. Recording Arts, Songwriting)"",""AP Music Theory Classes"",""Bachelor of Music (BM)"",""Masters (MA)"",""Masters (MM)"",""Perfomer's Certificate/Graduate Performance Diploma"",""Doctorate (DMA or DM)"",""Doctorate (Ph.D.)""]}","[0]","""","""","2021-08-10 18:33:17","Mozilla/5.0 (Macintosh; Intel Mac OS X 10_15_7) AppleWebKit/537.36 (KHTML, like Gecko) Chrome/92.0.4515.107 Safari/537.36","Macintosh","Chrome","92.0.4515.107","OS X","10_15_7","c2ec3e1d97c081aeb487e375c8af45d6"
"58",10,1,"""",11252.8000000119,"survey-multi-select",57,2664472,"0.0-57.0","{""Colors"":[""Graduate student (teaching assistants)""]}","[0]","""","""","2021-08-10 18:33:17","Mozilla/5.0 (Macintosh; Intel Mac OS X 10_15_7) AppleWebKit/537.36 (KHTML, like Gecko) Chrome/92.0.4515.107 Safari/537.36","Macintosh","Chrome","92.0.4515.107","OS X","10_15_7","c2ec3e1d97c081aeb487e375c8af45d6"
"59",10,1,"""",284377,"survey-multi-select",58,2948873,"0.0-58.0","{""Colors"":[""Graduate degree in music theory or composition""]}","[0]","""","""","2021-08-10 18:33:17","Mozilla/5.0 (Macintosh; Intel Mac OS X 10_15_7) AppleWebKit/537.36 (KHTML, like Gecko) Chrome/92.0.4515.107 Safari/537.36","Macintosh","Chrome","92.0.4515.107","OS X","10_15_7","c2ec3e1d97c081aeb487e375c8af45d6"
"60",10,1,"""",161069.900000006,"survey-text",59,3109960,"0.0-59.0","{""Q0"":""USA""}","""","""","""","2021-08-10 18:33:17","Mozilla/5.0 (Macintosh; Intel Mac OS X 10_15_7) AppleWebKit/537.36 (KHTML, like Gecko) Chrome/92.0.4515.107 Safari/537.36","Macintosh","Chrome","92.0.4515.107","OS X","10_15_7","c2ec3e1d97c081aeb487e375c8af45d6"
"61",10,1,"""",3315.40000000596,"survey-text",60,3113282,"0.0-60.0","{""Q0"":""NY""}","""","""","""","2021-08-10 18:33:17","Mozilla/5.0 (Macintosh; Intel Mac OS X 10_15_7) AppleWebKit/537.36 (KHTML, like Gecko) Chrome/92.0.4515.107 Safari/537.36","Macintosh","Chrome","92.0.4515.107","OS X","10_15_7","c2ec3e1d97c081aeb487e375c8af45d6"
"62",10,1,"""",8667.70000001788,"survey-text",61,3121954,"0.0-61.0","{""Q0"":""No thanks, excellent work!""}","""","""","""","2021-08-10 18:33:17","Mozilla/5.0 (Macintosh; Intel Mac OS X 10_15_7) AppleWebKit/537.36 (KHTML, like Gecko) Chrome/92.0.4515.107 Safari/537.36","Macintosh","Chrome","92.0.4515.107","OS X","10_15_7","c2ec3e1d97c081aeb487e375c8af45d6"
"63",10,1,"[{""page_index"":0,""viewing_time"":7229.699999988079}]",7230.09999999404,"instructions",62,3129187,"0.0-62.0","""","""","""","""","2021-08-10 18:33:17","Mozilla/5.0 (Macintosh; Intel Mac OS X 10_15_7) AppleWebKit/537.36 (KHTML, like Gecko) Chrome/92.0.4515.107 Safari/537.36","Macintosh","Chrome","92.0.4515.107","OS X","10_15_7","c2ec3e1d97c081aeb487e375c8af45d6"
"64",11,1,"[{""page_index"":0,""viewing_time"":2918},{""page_index"":1,""viewing_time"":728},{""page_index"":2,""viewing_time"":1351}]",4997,"instructions",0,5008,"0.0-0.0","""","""","""","""","2021-11-09 15:52:12","Mozilla/5.0 (Macintosh; Intel Mac OS X 10.15; rv:94.0) Gecko/20100101 Firefox/94.0","Macintosh","Firefox","94.0","OS X","10.15","8f8fbc6ef03fcbbd2622e55cc1f13f7b"
"65",11,1,"[{""page_index"":0,""viewing_time"":1153}]",1153,"instructions",1,6165,"0.0-1.0","""","""","""","""","2021-11-09 15:52:12","Mozilla/5.0 (Macintosh; Intel Mac OS X 10.15; rv:94.0) Gecko/20100101 Firefox/94.0","Macintosh","Firefox","94.0","OS X","10.15","8f8fbc6ef03fcbbd2622e55cc1f13f7b"
"66",11,1,"""",7975977,"survey-likert",2,7982528,"0.0-2.0","{""ap_ref_tonal"":7,""ap_produce_440"":7,""rp_perceive_same"":7,""ap_id_440"":7,""rp_lose"":7,""rp_id_440"":7,""rp_produce_tonality"":7,""rp_produce_abref"":7,""rp_name_relation"":7,""ap_to_rp"":7,""ap_id_interval"":7,""rp_produce_440"":7,""rp_id_interval"":7,""ap_perceive_same"":7,""rp_name_abref"":7,""ap_lose"":7,""ap_produce_interval"":7,""ap_remember_group"":7,""ap_produce_abref"":7,""ap_name_relation"":7,""ap_name_abref"":7,""rp_ref_tonal"":7,""rp_to_ap"":7,""rp_produce_interval"":7,""rp_remember_group"":7,""ap_produce_tonality"":7}","[14,23,6,22,12,7,1,10,5,21,2,17,8,3,20,15,9,27,18,26,25,19,24,0,13,4,11,16]","""","""","2021-11-09 15:52:12","Mozilla/5.0 (Macintosh; Intel Mac OS X 10.15; rv:94.0) Gecko/20100101 Firefox/94.0","Macintosh","Firefox","94.0","OS X","10.15","8f8fbc6ef03fcbbd2622e55cc1f13f7b"
"67",11,1,"""",14325,"survey-text",3,7996866,"0.0-3.0","{""Q0"":""lkj""}","""","""","""","2021-11-09 15:52:12","Mozilla/5.0 (Macintosh; Intel Mac OS X 10.15; rv:94.0) Gecko/20100101 Firefox/94.0","Macintosh","Firefox","94.0","OS X","10.15","8f8fbc6ef03fcbbd2622e55cc1f13f7b"
"68",11,1,"""",4480,"survey-text",4,8001352,"0.0-4.0","{""Q0"":""khj""}","""","""","""","2021-11-09 15:52:12","Mozilla/5.0 (Macintosh; Intel Mac OS X 10.15; rv:94.0) Gecko/20100101 Firefox/94.0","Macintosh","Firefox","94.0","OS X","10.15","8f8fbc6ef03fcbbd2622e55cc1f13f7b"
"69",11,1,"[{""page_index"":0,""viewing_time"":1684}]",1685,"instructions",5,8003042,"0.0-5.0","""","""","""","""","2021-11-09 15:52:12","Mozilla/5.0 (Macintosh; Intel Mac OS X 10.15; rv:94.0) Gecko/20100101 Firefox/94.0","Macintosh","Firefox","94.0","OS X","10.15","8f8fbc6ef03fcbbd2622e55cc1f13f7b"
"70",11,1,"""",21452,"survey-likert",6,8024501,"0.0-6.0","{""rp_impaired"":7,""rp_trained_ap"":7,""rp_normal"":7,""ap_better_others"":7,""re_people_al"":7,""ap_tonedeaf"":7,""ap_people_all"":7,""ap_trained_ap"":7,""ap_impaired"":7,""ap_override"":7,""rp_better_others"":7,""ap_normal"":7,""rp_override"":7,""rp_tonedeaf"":7}","[1,3,5,13,0,11,7,10,8,9,6,12,2,4]","""","""","2021-11-09 15:52:12","Mozilla/5.0 (Macintosh; Intel Mac OS X 10.15; rv:94.0) Gecko/20100101 Firefox/94.0","Macintosh","Firefox","94.0","OS X","10.15","8f8fbc6ef03fcbbd2622e55cc1f13f7b"
"71",11,1,"[{""page_index"":0,""viewing_time"":1922}]",1922,"instructions",7,8026424,"0.0-7.0","""","""","""","""","2021-11-09 15:52:12","Mozilla/5.0 (Macintosh; Intel Mac OS X 10.15; rv:94.0) Gecko/20100101 Firefox/94.0","Macintosh","Firefox","94.0","OS X","10.15","8f8fbc6ef03fcbbd2622e55cc1f13f7b"
"72",11,1,"[{""page_index"":0,""viewing_time"":1237}]",1237,"instructions",8,8027663,"0.0-8.0","""","""","""","""","2021-11-09 15:52:12","Mozilla/5.0 (Macintosh; Intel Mac OS X 10.15; rv:94.0) Gecko/20100101 Firefox/94.0","Macintosh","Firefox","94.0","OS X","10.15","8f8fbc6ef03fcbbd2622e55cc1f13f7b"
"73",11,1,"[{""page_index"":0,""viewing_time"":9403}]",9403,"instructions",9,8037069,"0.0-9.0","""","""","""","""","2021-11-09 15:52:12","Mozilla/5.0 (Macintosh; Intel Mac OS X 10.15; rv:94.0) Gecko/20100101 Firefox/94.0","Macintosh","Firefox","94.0","OS X","10.15","8f8fbc6ef03fcbbd2622e55cc1f13f7b"
"74",11,1,"""",6207,"survey-likert",10,8043281,"0.0-10.0","{""rp_ac_rate"":""}","[0]","""","""","2021-11-09 15:52:12","Mozilla/5.0 (Macintosh; Intel Mac OS X 10.15; rv:94.0) Gecko/20100101 Firefox/94.0","Macintosh","Firefox","94.0","OS X","10.15","8f8fbc6ef03fcbbd2622e55cc1f13f7b"
"75",11,1,"""",64176,"html-slider-response",11,8107488,"0.0-11.0","63","""","<p></p>","50","2021-11-09 15:52:12","Mozilla/5.0 (Macintosh; Intel Mac OS X 10.15; rv:94.0) Gecko/20100101 Firefox/94.0","Macintosh","Firefox","94.0","OS X","10.15","8f8fbc6ef03fcbbd2622e55cc1f13f7b"
"76",11,1,"""",4247,"survey-likert",12,8111740,"0.0-12.0","{""rp_ac_rate"":7}","[0]","""","""","2021-11-09 15:52:12","Mozilla/5.0 (Macintosh; Intel Mac OS X 10.15; rv:94.0) Gecko/20100101 Firefox/94.0","Macintosh","Firefox","94.0","OS X","10.15","8f8fbc6ef03fcbbd2622e55cc1f13f7b"
"77",11,1,"""",15693,"html-slider-response",13,8127437,"0.0-13.0","31","""","<p></p>","50","2021-11-09 15:52:12","Mozilla/5.0 (Macintosh; Intel Mac OS X 10.15; rv:94.0) Gecko/20100101 Firefox/94.0","Macintosh","Firefox","94.0","OS X","10.15","8f8fbc6ef03fcbbd2622e55cc1f13f7b"
"78",11,1,"""",14337,"survey-likert",14,8141780,"0.0-14.0","{""often"":5,""rp"":5}","[0,1,2,3]","""","""","2021-11-09 15:52:12","Mozilla/5.0 (Macintosh; Intel Mac OS X 10.15; rv:94.0) Gecko/20100101 Firefox/94.0","Macintosh","Firefox","94.0","OS X","10.15","8f8fbc6ef03fcbbd2622e55cc1f13f7b"
"79",11,1,"""",5859,"survey-text",15,8147643,"0.0-15.0","{""Q0"":""}","""","""","""","2021-11-09 15:52:12","Mozilla/5.0 (Macintosh; Intel Mac OS X 10.15; rv:94.0) Gecko/20100101 Firefox/94.0","Macintosh","Firefox","94.0","OS X","10.15","8f8fbc6ef03fcbbd2622e55cc1f13f7b"
"80",11,1,"""",10610,"survey-likert",16,8158257,"0.0-16.0","{""rp_ac_rate"":8}","[0,1,2,3,4]","""","""","2021-11-09 15:52:12","Mozilla/5.0 (Macintosh; Intel Mac OS X 10.15; rv:94.0) Gecko/20100101 Firefox/94.0","Macintosh","Firefox","94.0","OS X","10.15","8f8fbc6ef03fcbbd2622e55cc1f13f7b"
"81",11,1,"""",1764,"survey-text",17,8160029,"0.0-17.0","{""Q0"":""}","""","""","""","2021-11-09 15:52:12","Mozilla/5.0 (Macintosh; Intel Mac OS X 10.15; rv:94.0) Gecko/20100101 Firefox/94.0","Macintosh","Firefox","94.0","OS X","10.15","8f8fbc6ef03fcbbd2622e55cc1f13f7b"
"82",11,1,"""",1286,"survey-likert",18,8161317,"0.0-18.0","{""rp_ac_rate"":""}","[0,1,2,3,4]","""","""","2021-11-09 15:52:12","Mozilla/5.0 (Macintosh; Intel Mac OS X 10.15; rv:94.0) Gecko/20100101 Firefox/94.0","Macintosh","Firefox","94.0","OS X","10.15","8f8fbc6ef03fcbbd2622e55cc1f13f7b"
"83",11,1,"""",1379,"survey-text",19,8162700,"0.0-19.0","{""Q0"":""}","""","""","""","2021-11-09 15:52:12","Mozilla/5.0 (Macintosh; Intel Mac OS X 10.15; rv:94.0) Gecko/20100101 Firefox/94.0","Macintosh","Firefox","94.0","OS X","10.15","8f8fbc6ef03fcbbd2622e55cc1f13f7b"
"84",11,1,"""",1476,"survey-likert",20,8164179,"0.0-20.0","{""rp_ac_rate"":""}","[0,1,2,3,4]","""","""","2021-11-09 15:52:12","Mozilla/5.0 (Macintosh; Intel Mac OS X 10.15; rv:94.0) Gecko/20100101 Firefox/94.0","Macintosh","Firefox","94.0","OS X","10.15","8f8fbc6ef03fcbbd2622e55cc1f13f7b"
"85",11,1,"""",1289,"survey-text",21,8165473,"0.0-21.0","{""Q0"":""}","""","""","""","2021-11-09 15:52:12","Mozilla/5.0 (Macintosh; Intel Mac OS X 10.15; rv:94.0) Gecko/20100101 Firefox/94.0","Macintosh","Firefox","94.0","OS X","10.15","8f8fbc6ef03fcbbd2622e55cc1f13f7b"
"86",11,1,"""",1503,"survey-likert",22,8166980,"0.0-22.0","{""rp_ac_rate"":""}","[0,1,2,3,4]","""","""","2021-11-09 15:52:12","Mozilla/5.0 (Macintosh; Intel Mac OS X 10.15; rv:94.0) Gecko/20100101 Firefox/94.0","Macintosh","Firefox","94.0","OS X","10.15","8f8fbc6ef03fcbbd2622e55cc1f13f7b"
"87",11,1,"""",1048,"survey-text",23,8168035,"0.0-23.0","{""Q0"":""}","""","""","""","2021-11-09 15:52:12","Mozilla/5.0 (Macintosh; Intel Mac OS X 10.15; rv:94.0) Gecko/20100101 Firefox/94.0","Macintosh","Firefox","94.0","OS X","10.15","8f8fbc6ef03fcbbd2622e55cc1f13f7b"
"88",11,1,"""",1098,"survey-likert",24,8169136,"0.0-24.0","{""rp_ac_rate"":""}","[0,1,2,3,4]","""","""","2021-11-09 15:52:12","Mozilla/5.0 (Macintosh; Intel Mac OS X 10.15; rv:94.0) Gecko/20100101 Firefox/94.0","Macintosh","Firefox","94.0","OS X","10.15","8f8fbc6ef03fcbbd2622e55cc1f13f7b"
"89",11,1,"[{""page_index"":0,""viewing_time"":1413}]",1414,"instructions",25,8170551,"0.0-25.0","""","""","""","""","2021-11-09 15:52:12","Mozilla/5.0 (Macintosh; Intel Mac OS X 10.15; rv:94.0) Gecko/20100101 Firefox/94.0","Macintosh","Firefox","94.0","OS X","10.15","8f8fbc6ef03fcbbd2622e55cc1f13f7b"
"90",11,1,"""",6794,"survey-text",26,8177351,"0.0-26.0","{""Q0"":""}","""","""","""","2021-11-09 15:52:12","Mozilla/5.0 (Macintosh; Intel Mac OS X 10.15; rv:94.0) Gecko/20100101 Firefox/94.0","Macintosh","Firefox","94.0","OS X","10.15","8f8fbc6ef03fcbbd2622e55cc1f13f7b"
"91",11,1,"""",58521,"survey-likert",27,8235879,"0.0-27.0","{""rp_ac_rate"":8}","[0,1,2,3,4]","""","""","2021-11-09 15:52:12","Mozilla/5.0 (Macintosh; Intel Mac OS X 10.15; rv:94.0) Gecko/20100101 Firefox/94.0","Macintosh","Firefox","94.0","OS X","10.15","8f8fbc6ef03fcbbd2622e55cc1f13f7b"
"92",11,1,"""",4125,"survey-text",28,8240009,"0.0-28.0","{""Q0"":""}","""","""","""","2021-11-09 15:52:12","Mozilla/5.0 (Macintosh; Intel Mac OS X 10.15; rv:94.0) Gecko/20100101 Firefox/94.0","Macintosh","Firefox","94.0","OS X","10.15","8f8fbc6ef03fcbbd2622e55cc1f13f7b"
"93",11,1,"""",1264,"survey-likert",29,8241277,"0.0-29.0","{""rp_ac_rate"":""}","[0,1,2,3,4]","""","""","2021-11-09 15:52:12","Mozilla/5.0 (Macintosh; Intel Mac OS X 10.15; rv:94.0) Gecko/20100101 Firefox/94.0","Macintosh","Firefox","94.0","OS X","10.15","8f8fbc6ef03fcbbd2622e55cc1f13f7b"
"94",11,1,"""",1167,"survey-text",30,8242449,"0.0-30.0","{""Q0"":""}","""","""","""","2021-11-09 15:52:12","Mozilla/5.0 (Macintosh; Intel Mac OS X 10.15; rv:94.0) Gecko/20100101 Firefox/94.0","Macintosh","Firefox","94.0","OS X","10.15","8f8fbc6ef03fcbbd2622e55cc1f13f7b"
"95",11,1,"""",1569,"survey-likert",31,8244021,"0.0-31.0","{""rp_ac_rate"":""}","[0,1,2,3,4]","""","""","2021-11-09 15:52:12","Mozilla/5.0 (Macintosh; Intel Mac OS X 10.15; rv:94.0) Gecko/20100101 Firefox/94.0","Macintosh","Firefox","94.0","OS X","10.15","8f8fbc6ef03fcbbd2622e55cc1f13f7b"
"96",11,1,"""",1721,"survey-text",32,8245748,"0.0-32.0","{""Q0"":""}","""","""","""","2021-11-09 15:52:12","Mozilla/5.0 (Macintosh; Intel Mac OS X 10.15; rv:94.0) Gecko/20100101 Firefox/94.0","Macintosh","Firefox","94.0","OS X","10.15","8f8fbc6ef03fcbbd2622e55cc1f13f7b"
"97",11,1,"""",1439,"survey-likert",33,8247190,"0.0-33.0","{""rp_ac_rate"":""}","[0,1,2,3,4]","""","""","2021-11-09 15:52:12","Mozilla/5.0 (Macintosh; Intel Mac OS X 10.15; rv:94.0) Gecko/20100101 Firefox/94.0","Macintosh","Firefox","94.0","OS X","10.15","8f8fbc6ef03fcbbd2622e55cc1f13f7b"
"98",11,1,"""",1816,"survey-text",34,8249010,"0.0-34.0","{""Q0"":""}","""","""","""","2021-11-09 15:52:12","Mozilla/5.0 (Macintosh; Intel Mac OS X 10.15; rv:94.0) Gecko/20100101 Firefox/94.0","Macintosh","Firefox","94.0","OS X","10.15","8f8fbc6ef03fcbbd2622e55cc1f13f7b"
"99",11,1,"""",1411,"survey-likert",35,8250423,"0.0-35.0","{""rp_ac_rate"":""}","[0,1,2,3,4]","""","""","2021-11-09 15:52:12","Mozilla/5.0 (Macintosh; Intel Mac OS X 10.15; rv:94.0) Gecko/20100101 Firefox/94.0","Macintosh","Firefox","94.0","OS X","10.15","8f8fbc6ef03fcbbd2622e55cc1f13f7b"
"100",11,1,"""",57685,"survey-text",36,8308114,"0.0-36.0","{""Q0"":""}","""","""","""","2021-11-09 15:52:12","Mozilla/5.0 (Macintosh; Intel Mac OS X 10.15; rv:94.0) Gecko/20100101 Firefox/94.0","Macintosh","Firefox","94.0","OS X","10.15","8f8fbc6ef03fcbbd2622e55cc1f13f7b"
"101",11,1,"""",46309,"html-slider-response",37,8354429,"0.0-37.0","81","""","<p></p>","50","2021-11-09 15:52:12","Mozilla/5.0 (Macintosh; Intel Mac OS X 10.15; rv:94.0) Gecko/20100101 Firefox/94.0","Macintosh","Firefox","94.0","OS X","10.15","8f8fbc6ef03fcbbd2622e55cc1f13f7b"
"102",11,1,"""",13842,"survey-text",38,8368276,"0.0-38.0","{""Q0"":""sdf""}","""","""","""","2021-11-09 15:52:12","Mozilla/5.0 (Macintosh; Intel Mac OS X 10.15; rv:94.0) Gecko/20100101 Firefox/94.0","Macintosh","Firefox","94.0","OS X","10.15","8f8fbc6ef03fcbbd2622e55cc1f13f7b"
"103",11,1,"""",34517,"survey-text",39,8402799,"0.0-39.0","{""Q0"":""}","""","""","""","2021-11-09 15:52:12","Mozilla/5.0 (Macintosh; Intel Mac OS X 10.15; rv:94.0) Gecko/20100101 Firefox/94.0","Macintosh","Firefox","94.0","OS X","10.15","8f8fbc6ef03fcbbd2622e55cc1f13f7b"
"104",11,1,"""",93187,"html-slider-response",40,8495991,"0.0-40.0","77","""","<p></p>","50","2021-11-09 15:52:12","Mozilla/5.0 (Macintosh; Intel Mac OS X 10.15; rv:94.0) Gecko/20100101 Firefox/94.0","Macintosh","Firefox","94.0","OS X","10.15","8f8fbc6ef03fcbbd2622e55cc1f13f7b"
"105",11,1,"[{""page_index"":0,""viewing_time"":1981}]",1981,"instructions",41,8497974,"0.0-41.0","""","""","""","""","2021-11-09 15:52:12","Mozilla/5.0 (Macintosh; Intel Mac OS X 10.15; rv:94.0) Gecko/20100101 Firefox/94.0","Macintosh","Firefox","94.0","OS X","10.15","8f8fbc6ef03fcbbd2622e55cc1f13f7b"
"106",11,1,"[{""page_index"":0,""viewing_time"":1346}]",1346,"instructions",42,8499321,"0.0-42.0","""","""","""","""","2021-11-09 15:52:12","Mozilla/5.0 (Macintosh; Intel Mac OS X 10.15; rv:94.0) Gecko/20100101 Firefox/94.0","Macintosh","Firefox","94.0","OS X","10.15","8f8fbc6ef03fcbbd2622e55cc1f13f7b"
"107",11,1,"""",12288,"survey-multi-select",43,8511622,"0.0-43.0","{""Colors"":[""I do not currently teach"",""No Response""]}","[0]","""","""","2021-11-09 15:52:12","Mozilla/5.0 (Macintosh; Intel Mac OS X 10.15; rv:94.0) Gecko/20100101 Firefox/94.0","Macintosh","Firefox","94.0","OS X","10.15","8f8fbc6ef03fcbbd2622e55cc1f13f7b"
"108",11,1,"""",3268,"survey-text",44,8514897,"0.0-44.0","{""Q0"":""d""}","""","""","""","2021-11-09 15:52:12","Mozilla/5.0 (Macintosh; Intel Mac OS X 10.15; rv:94.0) Gecko/20100101 Firefox/94.0","Macintosh","Firefox","94.0","OS X","10.15","8f8fbc6ef03fcbbd2622e55cc1f13f7b"
"109",11,1,"""",9147,"survey-multi-select",45,8524048,"0.0-45.0","{""Colors"":[""DMA in Theory/Composition"",""Ph.D. in Composition"",""No Response""]}","[0]","""","""","2021-11-09 15:52:12","Mozilla/5.0 (Macintosh; Intel Mac OS X 10.15; rv:94.0) Gecko/20100101 Firefox/94.0","Macintosh","Firefox","94.0","OS X","10.15","8f8fbc6ef03fcbbd2622e55cc1f13f7b"
"110",11,1,"""",1452,"survey-text",46,8525504,"0.0-46.0","{""Q0"":""}","""","""","""","2021-11-09 15:52:12","Mozilla/5.0 (Macintosh; Intel Mac OS X 10.15; rv:94.0) Gecko/20100101 Firefox/94.0","Macintosh","Firefox","94.0","OS X","10.15","8f8fbc6ef03fcbbd2622e55cc1f13f7b"
"111",11,1,"""",4798,"survey-multi-select",47,8530306,"0.0-47.0","{""Colors"":[""NASM-accredited music program""]}","[0]","""","""","2021-11-09 15:52:12","Mozilla/5.0 (Macintosh; Intel Mac OS X 10.15; rv:94.0) Gecko/20100101 Firefox/94.0","Macintosh","Firefox","94.0","OS X","10.15","8f8fbc6ef03fcbbd2622e55cc1f13f7b"
"112",11,1,"""",3543,"survey-multi-select",48,8533855,"0.0-48.0","{""Colors"":[""I am not currently employed as a teacher""]}","[0]","""","""","2021-11-09 15:52:12","Mozilla/5.0 (Macintosh; Intel Mac OS X 10.15; rv:94.0) Gecko/20100101 Firefox/94.0","Macintosh","Firefox","94.0","OS X","10.15","8f8fbc6ef03fcbbd2622e55cc1f13f7b"
"113",11,1,"[{""page_index"":0,""viewing_time"":1203}]",1204,"instructions",49,8535059,"0.0-49.0","""","""","""","""","2021-11-09 15:52:12","Mozilla/5.0 (Macintosh; Intel Mac OS X 10.15; rv:94.0) Gecko/20100101 Firefox/94.0","Macintosh","Firefox","94.0","OS X","10.15","8f8fbc6ef03fcbbd2622e55cc1f13f7b"
"114",11,1,"""",3294,"survey-text",50,8538356,"0.0-50.0","{""Q0"":""d""}","""","""","""","2021-11-09 15:52:12","Mozilla/5.0 (Macintosh; Intel Mac OS X 10.15; rv:94.0) Gecko/20100101 Firefox/94.0","Macintosh","Firefox","94.0","OS X","10.15","8f8fbc6ef03fcbbd2622e55cc1f13f7b"
"115",11,1,"""",3060,"survey-multi-select",51,8541424,"0.0-51.0","{""Colors"":[""German letter names""]}","[0]","""","""","2021-11-09 15:52:12","Mozilla/5.0 (Macintosh; Intel Mac OS X 10.15; rv:94.0) Gecko/20100101 Firefox/94.0","Macintosh","Firefox","94.0","OS X","10.15","8f8fbc6ef03fcbbd2622e55cc1f13f7b"
"116",11,1,"""",5218,"survey-multi-select",52,8546646,"0.0-52.0","{""Colors"":[""Fixed Do without inflections""]}","[0]","""","""","2021-11-09 15:52:12","Mozilla/5.0 (Macintosh; Intel Mac OS X 10.15; rv:94.0) Gecko/20100101 Firefox/94.0","Macintosh","Firefox","94.0","OS X","10.15","8f8fbc6ef03fcbbd2622e55cc1f13f7b"
"117",11,1,"""",4106,"survey-multi-select",53,8550758,"0.0-53.0","{""Colors"":[""Letter names""]}","[0]","""","""","2021-11-09 15:52:12","Mozilla/5.0 (Macintosh; Intel Mac OS X 10.15; rv:94.0) Gecko/20100101 Firefox/94.0","Macintosh","Firefox","94.0","OS X","10.15","8f8fbc6ef03fcbbd2622e55cc1f13f7b"
"118",11,1,"""",3964,"survey-multi-select",54,8554726,"0.0-54.0","{""Colors"":[""German letter names""]}","[0]","""","""","2021-11-09 15:52:12","Mozilla/5.0 (Macintosh; Intel Mac OS X 10.15; rv:94.0) Gecko/20100101 Firefox/94.0","Macintosh","Firefox","94.0","OS X","10.15","8f8fbc6ef03fcbbd2622e55cc1f13f7b"
"119",11,1,"""",4033,"survey-text",55,8558764,"0.0-55.0","{""Q0"":""d""}","""","""","""","2021-11-09 15:52:12","Mozilla/5.0 (Macintosh; Intel Mac OS X 10.15; rv:94.0) Gecko/20100101 Firefox/94.0","Macintosh","Firefox","94.0","OS X","10.15","8f8fbc6ef03fcbbd2622e55cc1f13f7b"
"120",11,1,"""",8535,"survey-multi-choice",56,8567301,"0.0-56.0","{""theory_track"":""NR"",""pitch_mem"":""NR"",""score_transp"":""NR""}","[0,1,2]","""","""","2021-11-09 15:52:12","Mozilla/5.0 (Macintosh; Intel Mac OS X 10.15; rv:94.0) Gecko/20100101 Firefox/94.0","Macintosh","Firefox","94.0","OS X","10.15","8f8fbc6ef03fcbbd2622e55cc1f13f7b"
"121",11,1,"""",3070,"survey-multi-select",57,8570378,"0.0-57.0","{""Colors"":[""I do not currently teach""]}","[0]","""","""","2021-11-09 15:52:12","Mozilla/5.0 (Macintosh; Intel Mac OS X 10.15; rv:94.0) Gecko/20100101 Firefox/94.0","Macintosh","Firefox","94.0","OS X","10.15","8f8fbc6ef03fcbbd2622e55cc1f13f7b"
"122",11,1,"""",1176,"survey-text",58,8571559,"0.0-58.0","{""Q0"":""}","""","""","""","2021-11-09 15:52:12","Mozilla/5.0 (Macintosh; Intel Mac OS X 10.15; rv:94.0) Gecko/20100101 Firefox/94.0","Macintosh","Firefox","94.0","OS X","10.15","8f8fbc6ef03fcbbd2622e55cc1f13f7b"
"123",11,1,"""",9050,"survey-multi-select",59,8580613,"0.0-59.0","{""Colors"":[""Doctorate (Ph.D.)""]}","[0]","""","""","2021-11-09 15:52:12","Mozilla/5.0 (Macintosh; Intel Mac OS X 10.15; rv:94.0) Gecko/20100101 Firefox/94.0","Macintosh","Firefox","94.0","OS X","10.15","8f8fbc6ef03fcbbd2622e55cc1f13f7b"
"124",11,1,"""",5604,"survey-multi-select",60,8586223,"0.0-60.0","{""Colors"":[""Full-time tenure eligible"",""Full-time tenured""]}","[0]","""","""","2021-11-09 15:52:12","Mozilla/5.0 (Macintosh; Intel Mac OS X 10.15; rv:94.0) Gecko/20100101 Firefox/94.0","Macintosh","Firefox","94.0","OS X","10.15","8f8fbc6ef03fcbbd2622e55cc1f13f7b"
"125",11,1,"""",12033,"survey-multi-select",61,8598259,"0.0-61.0","{""Colors"":[""Graduate degree in music theory or composition"",""Graduate degree in music education""]}","[0]","""","""","2021-11-09 15:52:12","Mozilla/5.0 (Macintosh; Intel Mac OS X 10.15; rv:94.0) Gecko/20100101 Firefox/94.0","Macintosh","Firefox","94.0","OS X","10.15","8f8fbc6ef03fcbbd2622e55cc1f13f7b"
"126",11,1,"""",3206,"survey-text",62,8601470,"0.0-62.0","{""Q0"":""d""}","""","""","""","2021-11-09 15:52:12","Mozilla/5.0 (Macintosh; Intel Mac OS X 10.15; rv:94.0) Gecko/20100101 Firefox/94.0","Macintosh","Firefox","94.0","OS X","10.15","8f8fbc6ef03fcbbd2622e55cc1f13f7b"
"127",11,1,"""",2406,"survey-text",63,8603882,"0.0-63.0","{""Q0"":""}","""","""","""","2021-11-09 15:52:12","Mozilla/5.0 (Macintosh; Intel Mac OS X 10.15; rv:94.0) Gecko/20100101 Firefox/94.0","Macintosh","Firefox","94.0","OS X","10.15","8f8fbc6ef03fcbbd2622e55cc1f13f7b"
"128",11,1,"""",110892,"survey-text",64,8714783,"0.0-64.0","{""Q0"":""}","""","""","""","2021-11-09 15:52:12","Mozilla/5.0 (Macintosh; Intel Mac OS X 10.15; rv:94.0) Gecko/20100101 Firefox/94.0","Macintosh","Firefox","94.0","OS X","10.15","8f8fbc6ef03fcbbd2622e55cc1f13f7b"
"129",11,1,"[{""page_index"":0,""viewing_time"":1446}]",1446,"instructions",65,8716230,"0.0-65.0","""","""","""","""","2021-11-09 15:52:12","Mozilla/5.0 (Macintosh; Intel Mac OS X 10.15; rv:94.0) Gecko/20100101 Firefox/94.0","Macintosh","Firefox","94.0","OS X","10.15","8f8fbc6ef03fcbbd2622e55cc1f13f7b"
"130",13,1,"[{""page_index"":0,""viewing_time"":6960.799999952316},{""page_index"":1,""viewing_time"":798.7999999523163},{""page_index"":2,""viewing_time"":2430.4000000953674},{""page_index"":3,""viewing_time"":19890.599999904633}]",30081.2000000477,"instructions",0,30109,"0.0-0.0","""","""","","","2021-07-12 15:13:12","Mozilla/5.0 (Macintosh; Intel Mac OS X 10_15_7) AppleWebKit/537.36 (KHTML, like Gecko) Chrome/91.0.4472.114 Safari/537.36","Macintosh","Chrome","91.0.4472.114","OS X","10_15_7",""
"131",13,1,"[{""page_index"":0,""viewing_time"":9700.299999952316}]",9700.40000009537,"instructions",1,39816,"0.0-1.0","""","""","","","2021-07-12 15:13:12","Mozilla/5.0 (Macintosh; Intel Mac OS X 10_15_7) AppleWebKit/537.36 (KHTML, like Gecko) Chrome/91.0.4472.114 Safari/537.36","Macintosh","Chrome","91.0.4472.114","OS X","10_15_7",""
"132",13,1,"""",381905.100000143,"survey-likert",2,421729,"0.0-2.0","{""rp_name_relation"":2,""ap_ref_tonal"":3,""rp_to_ap"":4,""ap_name_relation"":5,""ap_produce_abref"":6,""ap_id_440"":5,""ap_lose"":4,""ap_to_rp"":3,""ap_remember_group"":2,""ap_produce_440"":1,""rp_name_abref"":1,""ap_name_abref"":2,""rp_lose"":4,""rp_remember_group"":5,""rp_id_440"":6,""ap_perceive_same"":5,""rp_produce_interval"":4,""rp_produce_tonality"":3,""ap_produce_tonality"":2,""rp_ref_tonal"":1,""rp_perceive_same"":0,""rp_produce_440"":1,""ap_produce_interval"":2,""rp_produce_abref"":3,""ap_id_interval"":4,""rp_id_interval"":3}","[5,2,13,19,25,22,27,21,26,23,14,9,24,15,12,11,7,20,4,1,16,0,6,8,18,10,17,3]","","","2021-07-12 15:13:12","Mozilla/5.0 (Macintosh; Intel Mac OS X 10_15_7) AppleWebKit/537.36 (KHTML, like Gecko) Chrome/91.0.4472.114 Safari/537.36","Macintosh","Chrome","91.0.4472.114","OS X","10_15_7",""
"133",13,1,"""",6702.29999995232,"survey-text",3,428444,"0.0-3.0","{""Q0"":""}","""","","","2021-07-12 15:13:12","Mozilla/5.0 (Macintosh; Intel Mac OS X 10_15_7) AppleWebKit/537.36 (KHTML, like Gecko) Chrome/91.0.4472.114 Safari/537.36","Macintosh","Chrome","91.0.4472.114","OS X","10_15_7",""
"134",13,1,"""",6747.80000019073,"survey-text",4,435194,"0.0-4.0","{""Q0"":""}","""","","","2021-07-12 15:13:12","Mozilla/5.0 (Macintosh; Intel Mac OS X 10_15_7) AppleWebKit/537.36 (KHTML, like Gecko) Chrome/91.0.4472.114 Safari/537.36","Macintosh","Chrome","91.0.4472.114","OS X","10_15_7",""
"135",13,1,"[{""page_index"":0,""viewing_time"":1933.3999998569489}]",1934.39999985695,"instructions",5,437129,"0.0-5.0","""","""","","","2021-07-12 15:13:12","Mozilla/5.0 (Macintosh; Intel Mac OS X 10_15_7) AppleWebKit/537.36 (KHTML, like Gecko) Chrome/91.0.4472.114 Safari/537.36","Macintosh","Chrome","91.0.4472.114","OS X","10_15_7",""
"136",13,1,"""",41837.7000000477,"survey-likert",6,478972,"0.0-6.0","{""ap_better_others"":0,""rp_override"":0,""rp_trained_ap"":0,""rp_normal"":0,""ap_override"":0,""ap_people_all"":0,""rp_better_others"":0,""rp_impaired"":0,""ap_tonedeaf"":0,""ap_normal"":0,""rp_tonedeaf"":0,""ap_impaired"":0,""re_people_al"":0,""ap_trained_ap"":0}","[13,2,3,5,9,7,6,1,11,12,4,8,0,10]","","","2021-07-12 15:13:12","Mozilla/5.0 (Macintosh; Intel Mac OS X 10_15_7) AppleWebKit/537.36 (KHTML, like Gecko) Chrome/91.0.4472.114 Safari/537.36","Macintosh","Chrome","91.0.4472.114","OS X","10_15_7",""
"137",13,1,"[{""page_index"":0,""viewing_time"":27409.799999952316}]",27411,"instructions",7,506385,"0.0-7.0","""","""","","","2021-07-12 15:13:12","Mozilla/5.0 (Macintosh; Intel Mac OS X 10_15_7) AppleWebKit/537.36 (KHTML, like Gecko) Chrome/91.0.4472.114 Safari/537.36","Macintosh","Chrome","91.0.4472.114","OS X","10_15_7",""
"138",13,1,"[{""page_index"":0,""viewing_time"":5567.700000047684}]",5568.80000019073,"instructions",8,511954,"0.0-8.0","""","""","","","2021-07-12 15:13:12","Mozilla/5.0 (Macintosh; Intel Mac OS X 10_15_7) AppleWebKit/537.36 (KHTML, like Gecko) Chrome/91.0.4472.114 Safari/537.36","Macintosh","Chrome","91.0.4472.114","OS X","10_15_7",""
"139",13,1,"[{""page_index"":0,""viewing_time"":491532.69999980927}]",491533.299999952,"instructions",9,1003487,"0.0-9.0","""","""","","","2021-07-12 15:13:12","Mozilla/5.0 (Macintosh; Intel Mac OS X 10_15_7) AppleWebKit/537.36 (KHTML, like Gecko) Chrome/91.0.4472.114 Safari/537.36","Macintosh","Chrome","91.0.4472.114","OS X","10_15_7",""
"140",13,1,"""",127776.600000143,"survey-text",10,1131265,"0.0-10.0","{""Q0"":""}","""","","","2021-07-12 15:13:12","Mozilla/5.0 (Macintosh; Intel Mac OS X 10_15_7) AppleWebKit/537.36 (KHTML, like Gecko) Chrome/91.0.4472.114 Safari/537.36","Macintosh","Chrome","91.0.4472.114","OS X","10_15_7",""
"141",13,1,"""",641102.700000048,"survey-likert",11,1772368,"0.0-11.0","{""X"":"",""Y"":"",""Z"":""}","[0,1,2]","","","2021-07-12 15:13:12","Mozilla/5.0 (Macintosh; Intel Mac OS X 10_15_7) AppleWebKit/537.36 (KHTML, like Gecko) Chrome/91.0.4472.114 Safari/537.36","Macintosh","Chrome","91.0.4472.114","OS X","10_15_7",""
"142",13,1,"""",13587.2999999523,"survey-text",12,1785958,"0.0-12.0","{""Q0"":""}","""","","","2021-07-12 15:13:12","Mozilla/5.0 (Macintosh; Intel Mac OS X 10_15_7) AppleWebKit/537.36 (KHTML, like Gecko) Chrome/91.0.4472.114 Safari/537.36","Macintosh","Chrome","91.0.4472.114","OS X","10_15_7",""
"143",13,1,"""",5138.69999980927,"survey-likert",13,1791099,"0.0-13.0","{""X"":"",""Y"":"",""Z"":""}","[0,1,2]","","","2021-07-12 15:13:12","Mozilla/5.0 (Macintosh; Intel Mac OS X 10_15_7) AppleWebKit/537.36 (KHTML, like Gecko) Chrome/91.0.4472.114 Safari/537.36","Macintosh","Chrome","91.0.4472.114","OS X","10_15_7",""
"144",13,1,"""",1358.40000009537,"survey-text",14,1792460,"0.0-14.0","{""Q0"":""}","""","","","2021-07-12 15:13:12","Mozilla/5.0 (Macintosh; Intel Mac OS X 10_15_7) AppleWebKit/537.36 (KHTML, like Gecko) Chrome/91.0.4472.114 Safari/537.36","Macintosh","Chrome","91.0.4472.114","OS X","10_15_7",""
"145",13,1,"""",920.5,"survey-likert",15,1793383,"0.0-15.0","{""X"":"",""Y"":"",""Z"":""}","[0,1,2]","","","2021-07-12 15:13:12","Mozilla/5.0 (Macintosh; Intel Mac OS X 10_15_7) AppleWebKit/537.36 (KHTML, like Gecko) Chrome/91.0.4472.114 Safari/537.36","Macintosh","Chrome","91.0.4472.114","OS X","10_15_7",""
"146",13,1,"""",1437.20000004768,"survey-text",16,1794823,"0.0-16.0","{""Q0"":""}","""","","","2021-07-12 15:13:12","Mozilla/5.0 (Macintosh; Intel Mac OS X 10_15_7) AppleWebKit/537.36 (KHTML, like Gecko) Chrome/91.0.4472.114 Safari/537.36","Macintosh","Chrome","91.0.4472.114","OS X","10_15_7",""
"147",13,1,"""",943.699999809265,"survey-likert",17,1795768,"0.0-17.0","{""X"":"",""Y"":"",""Z"":""}","[0,1,2]","","","2021-07-12 15:13:12","Mozilla/5.0 (Macintosh; Intel Mac OS X 10_15_7) AppleWebKit/537.36 (KHTML, like Gecko) Chrome/91.0.4472.114 Safari/537.36","Macintosh","Chrome","91.0.4472.114","OS X","10_15_7",""
"148",13,1,"""",841,"survey-text",18,1796611,"0.0-18.0","{""Q0"":""}","""","","","2021-07-12 15:13:12","Mozilla/5.0 (Macintosh; Intel Mac OS X 10_15_7) AppleWebKit/537.36 (KHTML, like Gecko) Chrome/91.0.4472.114 Safari/537.36","Macintosh","Chrome","91.0.4472.114","OS X","10_15_7",""
"149",13,1,"""",1213.89999985695,"survey-likert",19,1797827,"0.0-19.0","{""X"":"",""Y"":"",""Z"":""}","[0,1,2]","","","2021-07-12 15:13:12","Mozilla/5.0 (Macintosh; Intel Mac OS X 10_15_7) AppleWebKit/537.36 (KHTML, like Gecko) Chrome/91.0.4472.114 Safari/537.36","Macintosh","Chrome","91.0.4472.114","OS X","10_15_7",""
"150",13,1,"""",2640.40000009537,"survey-text",20,1800471,"0.0-20.0","{""Q0"":""}","""","","","2021-07-12 15:13:12","Mozilla/5.0 (Macintosh; Intel Mac OS X 10_15_7) AppleWebKit/537.36 (KHTML, like Gecko) Chrome/91.0.4472.114 Safari/537.36","Macintosh","Chrome","91.0.4472.114","OS X","10_15_7",""
"151",13,1,"""",1504.59999990463,"survey-likert",21,1801978,"0.0-21.0","{""X"":"",""Y"":"",""Z"":""}","[0,1,2]","","","2021-07-12 15:13:12","Mozilla/5.0 (Macintosh; Intel Mac OS X 10_15_7) AppleWebKit/537.36 (KHTML, like Gecko) Chrome/91.0.4472.114 Safari/537.36","Macintosh","Chrome","91.0.4472.114","OS X","10_15_7",""
"152",13,1,"""",786.299999952316,"survey-text",22,1802767,"0.0-22.0","{""Q0"":""}","""","","","2021-07-12 15:13:12","Mozilla/5.0 (Macintosh; Intel Mac OS X 10_15_7) AppleWebKit/537.36 (KHTML, like Gecko) Chrome/91.0.4472.114 Safari/537.36","Macintosh","Chrome","91.0.4472.114","OS X","10_15_7",""
"153",13,1,"""",986.799999952316,"survey-likert",23,1803756,"0.0-23.0","{""X"":"",""Y"":"",""Z"":""}","[0,1,2]","","","2021-07-12 15:13:12","Mozilla/5.0 (Macintosh; Intel Mac OS X 10_15_7) AppleWebKit/537.36 (KHTML, like Gecko) Chrome/91.0.4472.114 Safari/537.36","Macintosh","Chrome","91.0.4472.114","OS X","10_15_7",""
"154",13,1,"""",749.299999952316,"survey-text",24,1804509,"0.0-24.0","{""Q0"":""}","""","","","2021-07-12 15:13:12","Mozilla/5.0 (Macintosh; Intel Mac OS X 10_15_7) AppleWebKit/537.36 (KHTML, like Gecko) Chrome/91.0.4472.114 Safari/537.36","Macintosh","Chrome","91.0.4472.114","OS X","10_15_7",""
"155",13,1,"""",774.700000047684,"survey-likert",25,1805286,"0.0-25.0","{""X"":"",""Y"":"",""Z"":""}","[0,1,2]","","","2021-07-12 15:13:12","Mozilla/5.0 (Macintosh; Intel Mac OS X 10_15_7) AppleWebKit/537.36 (KHTML, like Gecko) Chrome/91.0.4472.114 Safari/537.36","Macintosh","Chrome","91.0.4472.114","OS X","10_15_7",""
"156",13,1,"""",1618.5,"survey-text",26,1806906,"0.0-26.0","{""Q0"":""}","""","","","2021-07-12 15:13:12","Mozilla/5.0 (Macintosh; Intel Mac OS X 10_15_7) AppleWebKit/537.36 (KHTML, like Gecko) Chrome/91.0.4472.114 Safari/537.36","Macintosh","Chrome","91.0.4472.114","OS X","10_15_7",""
"157",13,1,"""",1505.70000004768,"survey-likert",27,1808414,"0.0-27.0","{""X"":"",""Y"":"",""Z"":""}","[0,1,2]","","","2021-07-12 15:13:12","Mozilla/5.0 (Macintosh; Intel Mac OS X 10_15_7) AppleWebKit/537.36 (KHTML, like Gecko) Chrome/91.0.4472.114 Safari/537.36","Macintosh","Chrome","91.0.4472.114","OS X","10_15_7",""
"158",13,1,"""",931.200000047684,"survey-text",28,1809347,"0.0-28.0","{""Q0"":""}","""","","","2021-07-12 15:13:12","Mozilla/5.0 (Macintosh; Intel Mac OS X 10_15_7) AppleWebKit/537.36 (KHTML, like Gecko) Chrome/91.0.4472.114 Safari/537.36","Macintosh","Chrome","91.0.4472.114","OS X","10_15_7",""
"159",13,1,"""",15950.3000001907,"survey-likert",29,1825300,"0.0-29.0","{""X"":0,""Y"":0,""Z"":0}","[0,1,2]","","","2021-07-12 15:13:12","Mozilla/5.0 (Macintosh; Intel Mac OS X 10_15_7) AppleWebKit/537.36 (KHTML, like Gecko) Chrome/91.0.4472.114 Safari/537.36","Macintosh","Chrome","91.0.4472.114","OS X","10_15_7",""
"160",13,1,"[{""page_index"":0,""viewing_time"":8089.299999952316}]",8089.69999980927,"instructions",30,1833391,"0.0-30.0","""","""","","","2021-07-12 15:13:12","Mozilla/5.0 (Macintosh; Intel Mac OS X 10_15_7) AppleWebKit/537.36 (KHTML, like Gecko) Chrome/91.0.4472.114 Safari/537.36","Macintosh","Chrome","91.0.4472.114","OS X","10_15_7",""
"161",13,1,"[{""page_index"":0,""viewing_time"":24194.099999904633}]",24194.5,"instructions",31,1857587,"0.0-31.0","""","""","","","2021-07-12 15:13:12","Mozilla/5.0 (Macintosh; Intel Mac OS X 10_15_7) AppleWebKit/537.36 (KHTML, like Gecko) Chrome/91.0.4472.114 Safari/537.36","Macintosh","Chrome","91.0.4472.114","OS X","10_15_7",""
"162",13,1,"""",611892.700000048,"survey-multi-select",32,2469485,"0.0-32.0","{""Colors"":[""Collegiate private lessons (in music performance)"",""Music courses for collegiate music majors not listed here"",""General education music courses for collegiate students""]}","[0]","","","2021-07-12 15:13:12","Mozilla/5.0 (Macintosh; Intel Mac OS X 10_15_7) AppleWebKit/537.36 (KHTML, like Gecko) Chrome/91.0.4472.114 Safari/537.36","Macintosh","Chrome","91.0.4472.114","OS X","10_15_7",""
"163",13,1,"""",37301.9000000954,"survey-text",33,2506791,"0.0-33.0","{""Q0"":""}","""","","","2021-07-12 15:13:12","Mozilla/5.0 (Macintosh; Intel Mac OS X 10_15_7) AppleWebKit/537.36 (KHTML, like Gecko) Chrome/91.0.4472.114 Safari/537.36","Macintosh","Chrome","91.0.4472.114","OS X","10_15_7",""
"164",13,1,"""",92299.899999857,"survey-multi-select",34,2599098,"0.0-34.0","{""Colors"":[""HS diploma"",""Ph.D. in Music Theory/Musicology""]}","[0]","","","2021-07-12 15:13:12","Mozilla/5.0 (Macintosh; Intel Mac OS X 10_15_7) AppleWebKit/537.36 (KHTML, like Gecko) Chrome/91.0.4472.114 Safari/537.36","Macintosh","Chrome","91.0.4472.114","OS X","10_15_7",""
"165",13,1,"""",121701.400000095,"survey-text",35,2720803,"0.0-35.0","{""Q0"":""}","""","","","2021-07-12 15:13:12","Mozilla/5.0 (Macintosh; Intel Mac OS X 10_15_7) AppleWebKit/537.36 (KHTML, like Gecko) Chrome/91.0.4472.114 Safari/537.36","Macintosh","Chrome","91.0.4472.114","OS X","10_15_7",""
"166",13,1,"""",57075.5,"survey-multi-select",36,2777887,"0.0-36.0","{""Colors"":[""Public institution""]}","[0]","","","2021-07-12 15:13:12","Mozilla/5.0 (Macintosh; Intel Mac OS X 10_15_7) AppleWebKit/537.36 (KHTML, like Gecko) Chrome/91.0.4472.114 Safari/537.36","Macintosh","Chrome","91.0.4472.114","OS X","10_15_7",""
"167",13,1,"""",56188.4000000954,"survey-multi-select",37,2834081,"0.0-37.0","{""Colors"":[""K-12 School Teacher""]}","[0]","","","2021-07-12 15:13:12","Mozilla/5.0 (Macintosh; Intel Mac OS X 10_15_7) AppleWebKit/537.36 (KHTML, like Gecko) Chrome/91.0.4472.114 Safari/537.36","Macintosh","Chrome","91.0.4472.114","OS X","10_15_7",""
"168",13,1,"[{""page_index"":0,""viewing_time"":29260.300000190735}]",29261.100000143,"instructions",38,2863342,"0.0-38.0","""","""","","","2021-07-12 15:13:12","Mozilla/5.0 (Macintosh; Intel Mac OS X 10_15_7) AppleWebKit/537.36 (KHTML, like Gecko) Chrome/91.0.4472.114 Safari/537.36","Macintosh","Chrome","91.0.4472.114","OS X","10_15_7",""
"169",13,1,"""",7128.79999995232,"survey-text",39,2870475,"0.0-39.0","{""Q0"":""}","""","","","2021-07-12 15:13:12","Mozilla/5.0 (Macintosh; Intel Mac OS X 10_15_7) AppleWebKit/537.36 (KHTML, like Gecko) Chrome/91.0.4472.114 Safari/537.36","Macintosh","Chrome","91.0.4472.114","OS X","10_15_7",""
"170",13,1,"""",108086.399999857,"survey-multi-select",40,2978577,"0.0-40.0","{""Colors"":[""Scale-degree numbers with inflections (e.g. An F# in the key of C is sung as Fi)""]}","[0]","","","2021-07-12 15:13:12","Mozilla/5.0 (Macintosh; Intel Mac OS X 10_15_7) AppleWebKit/537.36 (KHTML, like Gecko) Chrome/91.0.4472.114 Safari/537.36","Macintosh","Chrome","91.0.4472.114","OS X","10_15_7",""
"171",13,1,"""",38373.5999999046,"survey-multi-select",41,3016964,"0.0-41.0","{""Colors"":[""Scale-degree numbers with inflections""]}","[0]","","","2021-07-12 15:13:12","Mozilla/5.0 (Macintosh; Intel Mac OS X 10_15_7) AppleWebKit/537.36 (KHTML, like Gecko) Chrome/91.0.4472.114 Safari/537.36","Macintosh","Chrome","91.0.4472.114","OS X","10_15_7",""
"172",13,1,"""",6725.79999995232,"survey-multi-select",42,3023703,"0.0-42.0","{""Colors"":[""Scale-degree numbers with inflections""]}","[0]","","","2021-07-12 15:13:12","Mozilla/5.0 (Macintosh; Intel Mac OS X 10_15_7) AppleWebKit/537.36 (KHTML, like Gecko) Chrome/91.0.4472.114 Safari/537.36","Macintosh","Chrome","91.0.4472.114","OS X","10_15_7",""
"173",13,1,"""",83922.2000000477,"survey-text",43,3107628,"0.0-43.0","{""Q0"":""}","""","","","2021-07-12 15:13:12","Mozilla/5.0 (Macintosh; Intel Mac OS X 10_15_7) AppleWebKit/537.36 (KHTML, like Gecko) Chrome/91.0.4472.114 Safari/537.36","Macintosh","Chrome","91.0.4472.114","OS X","10_15_7",""
"174",13,1,"""",176098.900000095,"survey-likert",44,3283728,"0.0-44.0","{""often"":"",""rp"":""}","[0,1]","","","2021-07-12 15:13:12","Mozilla/5.0 (Macintosh; Intel Mac OS X 10_15_7) AppleWebKit/537.36 (KHTML, like Gecko) Chrome/91.0.4472.114 Safari/537.36","Macintosh","Chrome","91.0.4472.114","OS X","10_15_7",""
"175",13,1,"""",163035.100000143,"survey-multi-choice",45,3446766,"0.0-45.0","{""Vegetables"":""Yes"",""Fruit"":""Yes"",""Fruitz"":""Yes""}","[0,1,2]","","","2021-07-12 15:13:12","Mozilla/5.0 (Macintosh; Intel Mac OS X 10_15_7) AppleWebKit/537.36 (KHTML, like Gecko) Chrome/91.0.4472.114 Safari/537.36","Macintosh","Chrome","91.0.4472.114","OS X","10_15_7",""
"176",13,1,"""",28197,"survey-multi-select",46,3474969,"0.0-46.0","{""Colors"":[""Private college or university""]}","[0]","","","2021-07-12 15:13:12","Mozilla/5.0 (Macintosh; Intel Mac OS X 10_15_7) AppleWebKit/537.36 (KHTML, like Gecko) Chrome/91.0.4472.114 Safari/537.36","Macintosh","Chrome","91.0.4472.114","OS X","10_15_7",""
"177",13,1,"""",69647.4000000954,"survey-text",47,3544620,"0.0-47.0","{""Q0"":""}","""","","","2021-07-12 15:13:12","Mozilla/5.0 (Macintosh; Intel Mac OS X 10_15_7) AppleWebKit/537.36 (KHTML, like Gecko) Chrome/91.0.4472.114 Safari/537.36","Macintosh","Chrome","91.0.4472.114","OS X","10_15_7",""
"178",13,1,"""",66026,"survey-multi-select",48,3610658,"0.0-48.0","{""Colors"":[""Doctorate (Ph.D.)""]}","[0]","","","2021-07-12 15:13:12","Mozilla/5.0 (Macintosh; Intel Mac OS X 10_15_7) AppleWebKit/537.36 (KHTML, like Gecko) Chrome/91.0.4472.114 Safari/537.36","Macintosh","Chrome","91.0.4472.114","OS X","10_15_7",""
"179",13,1,"""",9524.30000019074,"survey-multi-select",49,3620187,"0.0-49.0","{""Colors"":[""Graduate student (teaching assistants)""]}","[0]","","","2021-07-12 15:13:12","Mozilla/5.0 (Macintosh; Intel Mac OS X 10_15_7) AppleWebKit/537.36 (KHTML, like Gecko) Chrome/91.0.4472.114 Safari/537.36","Macintosh","Chrome","91.0.4472.114","OS X","10_15_7",""
"180",13,1,"""",127370.5,"survey-multi-select",50,3747562,"0.0-50.0","{""Colors"":[""Undergraduate degree in performance"",""Undergraduate degree in music theory or composition""]}","[0]","","","2021-07-12 15:13:12","Mozilla/5.0 (Macintosh; Intel Mac OS X 10_15_7) AppleWebKit/537.36 (KHTML, like Gecko) Chrome/91.0.4472.114 Safari/537.36","Macintosh","Chrome","91.0.4472.114","OS X","10_15_7",""
"181",13,1,"""",71884.899999857,"survey-text",51,3819450,"0.0-51.0","{""Q0"":""}","""","","","2021-07-12 15:13:12","Mozilla/5.0 (Macintosh; Intel Mac OS X 10_15_7) AppleWebKit/537.36 (KHTML, like Gecko) Chrome/91.0.4472.114 Safari/537.36","Macintosh","Chrome","91.0.4472.114","OS X","10_15_7",""
"182",13,1,"""",1257.09999990463,"survey-text",52,3820710,"0.0-52.0","{""Q0"":""}","""","","","2021-07-12 15:13:12","Mozilla/5.0 (Macintosh; Intel Mac OS X 10_15_7) AppleWebKit/537.36 (KHTML, like Gecko) Chrome/91.0.4472.114 Safari/537.36","Macintosh","Chrome","91.0.4472.114","OS X","10_15_7",""
"183",13,1,"""",44130.7999999523,"survey-text",53,3864844,"0.0-53.0","{""Q0"":""}","""","","","2021-07-12 15:13:12","Mozilla/5.0 (Macintosh; Intel Mac OS X 10_15_7) AppleWebKit/537.36 (KHTML, like Gecko) Chrome/91.0.4472.114 Safari/537.36","Macintosh","Chrome","91.0.4472.114","OS X","10_15_7",""
"184",13,1,"""",18819.7999999523,"survey-text",54,3883666,"0.0-54.0","{""Q0"":""}","""","","","2021-07-12 15:13:12","Mozilla/5.0 (Macintosh; Intel Mac OS X 10_15_7) AppleWebKit/537.36 (KHTML, like Gecko) Chrome/91.0.4472.114 Safari/537.36","Macintosh","Chrome","91.0.4472.114","OS X","10_15_7",""
"185",13,1,"[{""page_index"":0,""viewing_time"":9911}]",9912.29999995232,"instructions",55,3893580,"0.0-55.0","""","""","","","2021-07-12 15:13:12","Mozilla/5.0 (Macintosh; Intel Mac OS X 10_15_7) AppleWebKit/537.36 (KHTML, like Gecko) Chrome/91.0.4472.114 Safari/537.36","Macintosh","Chrome","91.0.4472.114","OS X","10_15_7",""
"186",14,1,"[{""page_index"":0,""viewing_time"":2366},{""page_index"":1,""viewing_time"":672},{""page_index"":2,""viewing_time"":1116}]",4155,"instructions",0,4156,"0.0-0.0","""","""","""","""","2021-11-09 18:21:28","Mozilla/5.0 (Macintosh; Intel Mac OS X 10.15; rv:94.0) Gecko/20100101 Firefox/94.0","Macintosh","Firefox","94.0","OS X","10.15","8f8fbc6ef03fcbbd2622e55cc1f13f7b"
"187",14,1,"[{""page_index"":0,""viewing_time"":822}]",822,"instructions",1,4981,"0.0-1.0","""","""","""","""","2021-11-09 18:21:28","Mozilla/5.0 (Macintosh; Intel Mac OS X 10.15; rv:94.0) Gecko/20100101 Firefox/94.0","Macintosh","Firefox","94.0","OS X","10.15","8f8fbc6ef03fcbbd2622e55cc1f13f7b"
"188",14,1,"""",34432,"survey-likert",2,39419,"0.0-2.0","{""rp_ref_tonal"":7,""ap_name_abref"":7,""ap_lose"":7,""rp_id_440"":7,""rp_name_relation"":7,""rp_produce_440"":7,""ap_produce_tonality"":7,""ap_ref_tonal"":7,""rp_id_interval"":7,""rp_name_abref"":7,""ap_produce_440"":7,""ap_remember_group"":7,""ap_id_440"":7,""ap_perceive_same"":7,""rp_lose"":7,""rp_perceive_same"":7,""ap_produce_interval"":7,""rp_produce_tonality"":7,""rp_remember_group"":7,""ap_id_interval"":7,""ap_name_relation"":7,""ap_to_rp"":7,""rp_produce_interval"":7,""rp_to_ap"":7,""ap_produce_abref"":7,""rp_produce_abref"":7}","[0,24,27,7,5,8,16,14,3,9,23,26,22,20,12,6,18,1,11,17,15,19,21,4,13,25,10,2]","""","""","2021-11-09 18:21:28","Mozilla/5.0 (Macintosh; Intel Mac OS X 10.15; rv:94.0) Gecko/20100101 Firefox/94.0","Macintosh","Firefox","94.0","OS X","10.15","8f8fbc6ef03fcbbd2622e55cc1f13f7b"
"189",14,1,"""",4287,"survey-text",3,43711,"0.0-3.0","{""Q0"":""sdf""}","""","""","""","2021-11-09 18:21:28","Mozilla/5.0 (Macintosh; Intel Mac OS X 10.15; rv:94.0) Gecko/20100101 Firefox/94.0","Macintosh","Firefox","94.0","OS X","10.15","8f8fbc6ef03fcbbd2622e55cc1f13f7b"
"190",14,1,"""",1836,"survey-text",4,45555,"0.0-4.0","{""Q0"":""sdf""}","""","""","""","2021-11-09 18:21:28","Mozilla/5.0 (Macintosh; Intel Mac OS X 10.15; rv:94.0) Gecko/20100101 Firefox/94.0","Macintosh","Firefox","94.0","OS X","10.15","8f8fbc6ef03fcbbd2622e55cc1f13f7b"
"191",14,1,"[{""page_index"":0,""viewing_time"":1506}]",1506,"instructions",5,47063,"0.0-5.0","""","""","""","""","2021-11-09 18:21:28","Mozilla/5.0 (Macintosh; Intel Mac OS X 10.15; rv:94.0) Gecko/20100101 Firefox/94.0","Macintosh","Firefox","94.0","OS X","10.15","8f8fbc6ef03fcbbd2622e55cc1f13f7b"
"192",14,1,"""",56438,"survey-likert",6,103506,"0.0-6.0","{""ap_override"":7,""rp_tonedeaf"":7,""rp_normal"":7,""rp_override"":7,""rp_better_others"":7,""ap_impaired"":7,""ap_better_others"":7,""ap_trained_ap"":7,""ap_tonedeaf"":7,""rp_trained_ap"":7,""ap_people_all"":7,""ap_normal"":7,""rp_impaired"":7,""re_people_al"":7}","[9,4,5,2,6,8,13,10,11,3,7,12,1,0]","""","""","2021-11-09 18:21:28","Mozilla/5.0 (Macintosh; Intel Mac OS X 10.15; rv:94.0) Gecko/20100101 Firefox/94.0","Macintosh","Firefox","94.0","OS X","10.15","8f8fbc6ef03fcbbd2622e55cc1f13f7b"
"193",14,1,"[{""page_index"":0,""viewing_time"":1421}]",1421,"instructions",7,104932,"0.0-7.0","""","""","""","""","2021-11-09 18:21:28","Mozilla/5.0 (Macintosh; Intel Mac OS X 10.15; rv:94.0) Gecko/20100101 Firefox/94.0","Macintosh","Firefox","94.0","OS X","10.15","8f8fbc6ef03fcbbd2622e55cc1f13f7b"
"194",14,1,"[{""page_index"":0,""viewing_time"":2904}]",2905,"instructions",8,107838,"0.0-8.0","""","""","""","""","2021-11-09 18:21:28","Mozilla/5.0 (Macintosh; Intel Mac OS X 10.15; rv:94.0) Gecko/20100101 Firefox/94.0","Macintosh","Firefox","94.0","OS X","10.15","8f8fbc6ef03fcbbd2622e55cc1f13f7b"
"195",14,1,"[{""page_index"":0,""viewing_time"":8861}]",8861,"instructions",9,116702,"0.0-9.0","""","""","""","""","2021-11-09 18:21:28","Mozilla/5.0 (Macintosh; Intel Mac OS X 10.15; rv:94.0) Gecko/20100101 Firefox/94.0","Macintosh","Firefox","94.0","OS X","10.15","8f8fbc6ef03fcbbd2622e55cc1f13f7b"
"196",14,1,"""",58927,"survey-likert",10,175633,"0.0-10.0","{""rp_ac_rate"":1}","[0]","""","""","2021-11-09 18:21:28","Mozilla/5.0 (Macintosh; Intel Mac OS X 10.15; rv:94.0) Gecko/20100101 Firefox/94.0","Macintosh","Firefox","94.0","OS X","10.15","8f8fbc6ef03fcbbd2622e55cc1f13f7b"
"197",14,1,"""",9137,"html-slider-response",11,184775,"0.0-11.0","72","""","<p></p>","50","2021-11-09 18:21:28","Mozilla/5.0 (Macintosh; Intel Mac OS X 10.15; rv:94.0) Gecko/20100101 Firefox/94.0","Macintosh","Firefox","94.0","OS X","10.15","8f8fbc6ef03fcbbd2622e55cc1f13f7b"
"198",14,1,"""",11275,"survey-likert",12,196058,"0.0-12.0","{""rp_ac_rate"":""}","[0]","""","""","2021-11-09 18:21:28","Mozilla/5.0 (Macintosh; Intel Mac OS X 10.15; rv:94.0) Gecko/20100101 Firefox/94.0","Macintosh","Firefox","94.0","OS X","10.15","8f8fbc6ef03fcbbd2622e55cc1f13f7b"
"199",14,1,"""",5768,"html-slider-response",13,201828,"0.0-13.0","71","""","<p></p>","50","2021-11-09 18:21:28","Mozilla/5.0 (Macintosh; Intel Mac OS X 10.15; rv:94.0) Gecko/20100101 Firefox/94.0","Macintosh","Firefox","94.0","OS X","10.15","8f8fbc6ef03fcbbd2622e55cc1f13f7b"
"200",14,1,"""",703492,"survey-likert",14,905349,"0.0-14.0","{""often"":5,""rp"":5}","[0,1,2,3]","""","""","2021-11-09 18:21:28","Mozilla/5.0 (Macintosh; Intel Mac OS X 10.15; rv:94.0) Gecko/20100101 Firefox/94.0","Macintosh","Firefox","94.0","OS X","10.15","8f8fbc6ef03fcbbd2622e55cc1f13f7b"
"201",14,1,"""",3370,"survey-text",15,908724,"0.0-15.0","{""Q0"":""}","""","""","""","2021-11-09 18:21:28","Mozilla/5.0 (Macintosh; Intel Mac OS X 10.15; rv:94.0) Gecko/20100101 Firefox/94.0","Macintosh","Firefox","94.0","OS X","10.15","8f8fbc6ef03fcbbd2622e55cc1f13f7b"
"202",14,1,"""",12475,"survey-likert",16,921208,"0.0-16.0","{""rp_ac_rate"":8}","[0,1,2,3,4]","""","""","2021-11-09 18:21:28","Mozilla/5.0 (Macintosh; Intel Mac OS X 10.15; rv:94.0) Gecko/20100101 Firefox/94.0","Macintosh","Firefox","94.0","OS X","10.15","8f8fbc6ef03fcbbd2622e55cc1f13f7b"
"203",14,1,"""",1740,"survey-text",17,922955,"0.0-17.0","{""Q0"":""}","""","""","""","2021-11-09 18:21:28","Mozilla/5.0 (Macintosh; Intel Mac OS X 10.15; rv:94.0) Gecko/20100101 Firefox/94.0","Macintosh","Firefox","94.0","OS X","10.15","8f8fbc6ef03fcbbd2622e55cc1f13f7b"
"204",14,1,"""",1731,"survey-likert",18,924693,"0.0-18.0","{""rp_ac_rate"":""}","[0,1,2,3,4]","""","""","2021-11-09 18:21:28","Mozilla/5.0 (Macintosh; Intel Mac OS X 10.15; rv:94.0) Gecko/20100101 Firefox/94.0","Macintosh","Firefox","94.0","OS X","10.15","8f8fbc6ef03fcbbd2622e55cc1f13f7b"
"205",14,1,"""",1415,"survey-text",19,926116,"0.0-19.0","{""Q0"":""}","""","""","""","2021-11-09 18:21:28","Mozilla/5.0 (Macintosh; Intel Mac OS X 10.15; rv:94.0) Gecko/20100101 Firefox/94.0","Macintosh","Firefox","94.0","OS X","10.15","8f8fbc6ef03fcbbd2622e55cc1f13f7b"
"206",14,1,"""",1218,"survey-likert",20,927341,"0.0-20.0","{""rp_ac_rate"":""}","[0,1,2,3,4]","""","""","2021-11-09 18:21:28","Mozilla/5.0 (Macintosh; Intel Mac OS X 10.15; rv:94.0) Gecko/20100101 Firefox/94.0","Macintosh","Firefox","94.0","OS X","10.15","8f8fbc6ef03fcbbd2622e55cc1f13f7b"
"207",14,1,"""",1080,"survey-text",21,928426,"0.0-21.0","{""Q0"":""}","""","""","""","2021-11-09 18:21:28","Mozilla/5.0 (Macintosh; Intel Mac OS X 10.15; rv:94.0) Gecko/20100101 Firefox/94.0","Macintosh","Firefox","94.0","OS X","10.15","8f8fbc6ef03fcbbd2622e55cc1f13f7b"
"208",14,1,"""",1191,"survey-likert",22,929624,"0.0-22.0","{""rp_ac_rate"":""}","[0,1,2,3,4]","""","""","2021-11-09 18:21:28","Mozilla/5.0 (Macintosh; Intel Mac OS X 10.15; rv:94.0) Gecko/20100101 Firefox/94.0","Macintosh","Firefox","94.0","OS X","10.15","8f8fbc6ef03fcbbd2622e55cc1f13f7b"
"209",14,1,"""",1704,"survey-text",23,931333,"0.0-23.0","{""Q0"":""}","""","""","""","2021-11-09 18:21:28","Mozilla/5.0 (Macintosh; Intel Mac OS X 10.15; rv:94.0) Gecko/20100101 Firefox/94.0","Macintosh","Firefox","94.0","OS X","10.15","8f8fbc6ef03fcbbd2622e55cc1f13f7b"
"210",14,1,"""",1359,"survey-likert",24,932696,"0.0-24.0","{""rp_ac_rate"":""}","[0,1,2,3,4]","""","""","2021-11-09 18:21:28","Mozilla/5.0 (Macintosh; Intel Mac OS X 10.15; rv:94.0) Gecko/20100101 Firefox/94.0","Macintosh","Firefox","94.0","OS X","10.15","8f8fbc6ef03fcbbd2622e55cc1f13f7b"
"211",14,1,"[{""page_index"":0,""viewing_time"":1507}]",1507,"instructions",25,934206,"0.0-25.0","""","""","""","""","2021-11-09 18:21:28","Mozilla/5.0 (Macintosh; Intel Mac OS X 10.15; rv:94.0) Gecko/20100101 Firefox/94.0","Macintosh","Firefox","94.0","OS X","10.15","8f8fbc6ef03fcbbd2622e55cc1f13f7b"
"212",14,1,"""",1549,"survey-text",26,935762,"0.0-26.0","{""Q0"":""}","""","""","""","2021-11-09 18:21:28","Mozilla/5.0 (Macintosh; Intel Mac OS X 10.15; rv:94.0) Gecko/20100101 Firefox/94.0","Macintosh","Firefox","94.0","OS X","10.15","8f8fbc6ef03fcbbd2622e55cc1f13f7b"
"213",14,1,"""",70560,"survey-likert",27,1006329,"0.0-27.0","{""rp_ac_rate"":8}","[0,1,2,3,4]","""","""","2021-11-09 18:21:28","Mozilla/5.0 (Macintosh; Intel Mac OS X 10.15; rv:94.0) Gecko/20100101 Firefox/94.0","Macintosh","Firefox","94.0","OS X","10.15","8f8fbc6ef03fcbbd2622e55cc1f13f7b"
"214",14,1,"""",1590,"survey-text",28,1007926,"0.0-28.0","{""Q0"":""}","""","""","""","2021-11-09 18:21:28","Mozilla/5.0 (Macintosh; Intel Mac OS X 10.15; rv:94.0) Gecko/20100101 Firefox/94.0","Macintosh","Firefox","94.0","OS X","10.15","8f8fbc6ef03fcbbd2622e55cc1f13f7b"
"215",14,1,"""",3150,"survey-likert",29,1011080,"0.0-29.0","{""rp_ac_rate"":""}","[0,1,2,3,4]","""","""","2021-11-09 18:21:28","Mozilla/5.0 (Macintosh; Intel Mac OS X 10.15; rv:94.0) Gecko/20100101 Firefox/94.0","Macintosh","Firefox","94.0","OS X","10.15","8f8fbc6ef03fcbbd2622e55cc1f13f7b"
"216",14,1,"""",33024,"survey-text",30,1044109,"0.0-30.0","{""Q0"":""}","""","""","""","2021-11-09 18:21:28","Mozilla/5.0 (Macintosh; Intel Mac OS X 10.15; rv:94.0) Gecko/20100101 Firefox/94.0","Macintosh","Firefox","94.0","OS X","10.15","8f8fbc6ef03fcbbd2622e55cc1f13f7b"
"217",14,1,"""",1536,"survey-likert",31,1045651,"0.0-31.0","{""rp_ac_rate"":""}","[0,1,2,3,4]","""","""","2021-11-09 18:21:28","Mozilla/5.0 (Macintosh; Intel Mac OS X 10.15; rv:94.0) Gecko/20100101 Firefox/94.0","Macintosh","Firefox","94.0","OS X","10.15","8f8fbc6ef03fcbbd2622e55cc1f13f7b"
"218",14,1,"""",1129,"survey-text",32,1046783,"0.0-32.0","{""Q0"":""}","""","""","""","2021-11-09 18:21:28","Mozilla/5.0 (Macintosh; Intel Mac OS X 10.15; rv:94.0) Gecko/20100101 Firefox/94.0","Macintosh","Firefox","94.0","OS X","10.15","8f8fbc6ef03fcbbd2622e55cc1f13f7b"
"219",14,1,"""",1628,"survey-likert",33,1048415,"0.0-33.0","{""rp_ac_rate"":""}","[0,1,2,3,4]","""","""","2021-11-09 18:21:28","Mozilla/5.0 (Macintosh; Intel Mac OS X 10.15; rv:94.0) Gecko/20100101 Firefox/94.0","Macintosh","Firefox","94.0","OS X","10.15","8f8fbc6ef03fcbbd2622e55cc1f13f7b"
"220",14,1,"""",1548,"survey-text",34,1049969,"0.0-34.0","{""Q0"":""}","""","""","""","2021-11-09 18:21:28","Mozilla/5.0 (Macintosh; Intel Mac OS X 10.15; rv:94.0) Gecko/20100101 Firefox/94.0","Macintosh","Firefox","94.0","OS X","10.15","8f8fbc6ef03fcbbd2622e55cc1f13f7b"
"221",14,1,"""",11432,"survey-likert",35,1061406,"0.0-35.0","{""rp_ac_rate"":""}","[0,1,2,3,4]","""","""","2021-11-09 18:21:28","Mozilla/5.0 (Macintosh; Intel Mac OS X 10.15; rv:94.0) Gecko/20100101 Firefox/94.0","Macintosh","Firefox","94.0","OS X","10.15","8f8fbc6ef03fcbbd2622e55cc1f13f7b"
"222",14,1,"""",28721,"survey-text",36,1090132,"0.0-36.0","{""Q0"":""}","""","""","""","2021-11-09 18:21:28","Mozilla/5.0 (Macintosh; Intel Mac OS X 10.15; rv:94.0) Gecko/20100101 Firefox/94.0","Macintosh","Firefox","94.0","OS X","10.15","8f8fbc6ef03fcbbd2622e55cc1f13f7b"
"223",14,1,"""",9352,"html-slider-response",37,1099488,"0.0-37.0","69","""","<p></p>","50","2021-11-09 18:21:28","Mozilla/5.0 (Macintosh; Intel Mac OS X 10.15; rv:94.0) Gecko/20100101 Firefox/94.0","Macintosh","Firefox","94.0","OS X","10.15","8f8fbc6ef03fcbbd2622e55cc1f13f7b"
"224",14,1,"""",10903,"survey-text",38,1110400,"0.0-38.0","{""Q0"":""j""}","""","""","""","2021-11-09 18:21:28","Mozilla/5.0 (Macintosh; Intel Mac OS X 10.15; rv:94.0) Gecko/20100101 Firefox/94.0","Macintosh","Firefox","94.0","OS X","10.15","8f8fbc6ef03fcbbd2622e55cc1f13f7b"
"225",14,1,"""",13555,"survey-text",39,1123961,"0.0-39.0","{""Q0"":""}","""","""","""","2021-11-09 18:21:28","Mozilla/5.0 (Macintosh; Intel Mac OS X 10.15; rv:94.0) Gecko/20100101 Firefox/94.0","Macintosh","Firefox","94.0","OS X","10.15","8f8fbc6ef03fcbbd2622e55cc1f13f7b"
"226",14,1,"""",128088,"html-slider-response",40,1252053,"0.0-40.0","64","""","<p></p>","50","2021-11-09 18:21:28","Mozilla/5.0 (Macintosh; Intel Mac OS X 10.15; rv:94.0) Gecko/20100101 Firefox/94.0","Macintosh","Firefox","94.0","OS X","10.15","8f8fbc6ef03fcbbd2622e55cc1f13f7b"
"227",14,1,"[{""page_index"":0,""viewing_time"":1186}]",1186,"instructions",41,1253243,"0.0-41.0","""","""","""","""","2021-11-09 18:21:28","Mozilla/5.0 (Macintosh; Intel Mac OS X 10.15; rv:94.0) Gecko/20100101 Firefox/94.0","Macintosh","Firefox","94.0","OS X","10.15","8f8fbc6ef03fcbbd2622e55cc1f13f7b"
"228",14,1,"[{""page_index"":0,""viewing_time"":11694}]",11694,"instructions",42,1264938,"0.0-42.0","""","""","""","""","2021-11-09 18:21:28","Mozilla/5.0 (Macintosh; Intel Mac OS X 10.15; rv:94.0) Gecko/20100101 Firefox/94.0","Macintosh","Firefox","94.0","OS X","10.15","8f8fbc6ef03fcbbd2622e55cc1f13f7b"
"229",14,1,"""",6523,"survey-multi-select",43,1271472,"0.0-43.0","{""Colors"":[""No Response""]}","[0]","""","""","2021-11-09 18:21:28","Mozilla/5.0 (Macintosh; Intel Mac OS X 10.15; rv:94.0) Gecko/20100101 Firefox/94.0","Macintosh","Firefox","94.0","OS X","10.15","8f8fbc6ef03fcbbd2622e55cc1f13f7b"
"230",14,1,"""",2377,"survey-text",44,1273851,"0.0-44.0","{""Q0"":""d""}","""","""","""","2021-11-09 18:21:28","Mozilla/5.0 (Macintosh; Intel Mac OS X 10.15; rv:94.0) Gecko/20100101 Firefox/94.0","Macintosh","Firefox","94.0","OS X","10.15","8f8fbc6ef03fcbbd2622e55cc1f13f7b"
"231",14,1,"""",20126,"survey-multi-select",45,1293985,"0.0-45.0","{""Colors"":[""Bachelors in music"",""Masters in music"",""DMA in Performance"",""Ph.D. in Composition""]}","[0]","""","""","2021-11-09 18:21:28","Mozilla/5.0 (Macintosh; Intel Mac OS X 10.15; rv:94.0) Gecko/20100101 Firefox/94.0","Macintosh","Firefox","94.0","OS X","10.15","8f8fbc6ef03fcbbd2622e55cc1f13f7b"
"232",14,1,"""",1947,"survey-text",46,1295934,"0.0-46.0","{""Q0"":""d""}","""","""","""","2021-11-09 18:21:28","Mozilla/5.0 (Macintosh; Intel Mac OS X 10.15; rv:94.0) Gecko/20100101 Firefox/94.0","Macintosh","Firefox","94.0","OS X","10.15","8f8fbc6ef03fcbbd2622e55cc1f13f7b"
"233",14,1,"""",8513,"survey-multi-select",47,1304451,"0.0-47.0","{""Colors"":[""NASM-accredited music program""]}","[0]","""","""","2021-11-09 18:21:28","Mozilla/5.0 (Macintosh; Intel Mac OS X 10.15; rv:94.0) Gecko/20100101 Firefox/94.0","Macintosh","Firefox","94.0","OS X","10.15","8f8fbc6ef03fcbbd2622e55cc1f13f7b"
"234",14,1,"""",17774,"survey-multi-select",48,1322231,"0.0-48.0","{""Colors"":[""Full-Time Non-Tenure Eligible"",""Full-Time Tenured""]}","[0]","""","""","2021-11-09 18:21:28","Mozilla/5.0 (Macintosh; Intel Mac OS X 10.15; rv:94.0) Gecko/20100101 Firefox/94.0","Macintosh","Firefox","94.0","OS X","10.15","8f8fbc6ef03fcbbd2622e55cc1f13f7b"
"235",14,1,"[{""page_index"":0,""viewing_time"":1553}]",1553,"instructions",49,1323787,"0.0-49.0","""","""","""","""","2021-11-09 18:21:28","Mozilla/5.0 (Macintosh; Intel Mac OS X 10.15; rv:94.0) Gecko/20100101 Firefox/94.0","Macintosh","Firefox","94.0","OS X","10.15","8f8fbc6ef03fcbbd2622e55cc1f13f7b"
"236",14,1,"""",3002,"survey-text",50,1326792,"0.0-50.0","{""Q0"":""s""}","""","""","""","2021-11-09 18:21:28","Mozilla/5.0 (Macintosh; Intel Mac OS X 10.15; rv:94.0) Gecko/20100101 Firefox/94.0","Macintosh","Firefox","94.0","OS X","10.15","8f8fbc6ef03fcbbd2622e55cc1f13f7b"
"237",14,1,"""",72956,"survey-multi-select",51,1399754,"0.0-51.0","{""Colors"":[""No Response""]}","[0]","""","""","2021-11-09 18:21:28","Mozilla/5.0 (Macintosh; Intel Mac OS X 10.15; rv:94.0) Gecko/20100101 Firefox/94.0","Macintosh","Firefox","94.0","OS X","10.15","8f8fbc6ef03fcbbd2622e55cc1f13f7b"
"238",14,1,"""",1678,"survey-multi-select",52,1401437,"0.0-52.0","{""Colors"":[""German letter names""]}","[0]","""","""","2021-11-09 18:21:28","Mozilla/5.0 (Macintosh; Intel Mac OS X 10.15; rv:94.0) Gecko/20100101 Firefox/94.0","Macintosh","Firefox","94.0","OS X","10.15","8f8fbc6ef03fcbbd2622e55cc1f13f7b"
"239",14,1,"""",3806,"survey-multi-select",53,1405246,"0.0-53.0","{""Colors"":[""German letter names""]}","[0]","""","""","2021-11-09 18:21:28","Mozilla/5.0 (Macintosh; Intel Mac OS X 10.15; rv:94.0) Gecko/20100101 Firefox/94.0","Macintosh","Firefox","94.0","OS X","10.15","8f8fbc6ef03fcbbd2622e55cc1f13f7b"
"240",14,1,"""",2780,"survey-multi-select",54,1408031,"0.0-54.0","{""Colors"":[""No Response""]}","[0]","""","""","2021-11-09 18:21:28","Mozilla/5.0 (Macintosh; Intel Mac OS X 10.15; rv:94.0) Gecko/20100101 Firefox/94.0","Macintosh","Firefox","94.0","OS X","10.15","8f8fbc6ef03fcbbd2622e55cc1f13f7b"
"241",14,1,"""",2724,"survey-text",55,1410757,"0.0-55.0","{""Q0"":""d""}","""","""","""","2021-11-09 18:21:28","Mozilla/5.0 (Macintosh; Intel Mac OS X 10.15; rv:94.0) Gecko/20100101 Firefox/94.0","Macintosh","Firefox","94.0","OS X","10.15","8f8fbc6ef03fcbbd2622e55cc1f13f7b"
"242",14,1,"""",7002,"survey-multi-choice",56,1417763,"0.0-56.0","{""theory_track"":""NR"",""pitch_mem"":"",""score_transp"":""NR""}","[0,1,2]","""","""","2021-11-09 18:21:28","Mozilla/5.0 (Macintosh; Intel Mac OS X 10.15; rv:94.0) Gecko/20100101 Firefox/94.0","Macintosh","Firefox","94.0","OS X","10.15","8f8fbc6ef03fcbbd2622e55cc1f13f7b"
"243",14,1,"""",9628,"survey-multi-select",57,1427395,"0.0-57.0","{""Colors"":[""Music Department within a liberal arts college"",""No Response""]}","[0]","""","""","2021-11-09 18:21:28","Mozilla/5.0 (Macintosh; Intel Mac OS X 10.15; rv:94.0) Gecko/20100101 Firefox/94.0","Macintosh","Firefox","94.0","OS X","10.15","8f8fbc6ef03fcbbd2622e55cc1f13f7b"
"244",14,1,"""",1135,"survey-text",58,1428535,"0.0-58.0","{""Q0"":""}","""","""","""","2021-11-09 18:21:28","Mozilla/5.0 (Macintosh; Intel Mac OS X 10.15; rv:94.0) Gecko/20100101 Firefox/94.0","Macintosh","Firefox","94.0","OS X","10.15","8f8fbc6ef03fcbbd2622e55cc1f13f7b"
"245",14,1,"""",3667,"survey-multi-select",59,1432207,"0.0-59.0","{""Colors"":[""Masters (MM)""]}","[0]","""","""","2021-11-09 18:21:28","Mozilla/5.0 (Macintosh; Intel Mac OS X 10.15; rv:94.0) Gecko/20100101 Firefox/94.0","Macintosh","Firefox","94.0","OS X","10.15","8f8fbc6ef03fcbbd2622e55cc1f13f7b"
"246",14,1,"""",6869,"survey-multi-select",60,1439080,"0.0-60.0","{""Colors"":[""Full-time tenured""]}","[0]","""","""","2021-11-09 18:21:28","Mozilla/5.0 (Macintosh; Intel Mac OS X 10.15; rv:94.0) Gecko/20100101 Firefox/94.0","Macintosh","Firefox","94.0","OS X","10.15","8f8fbc6ef03fcbbd2622e55cc1f13f7b"
"247",14,1,"""",98107,"survey-multi-select",61,1537194,"0.0-61.0","{""Colors"":[""Graduate degree in performance"",""Graduate degree in music theory or composition"",""No Response""]}","[0]","""","""","2021-11-09 18:21:28","Mozilla/5.0 (Macintosh; Intel Mac OS X 10.15; rv:94.0) Gecko/20100101 Firefox/94.0","Macintosh","Firefox","94.0","OS X","10.15","8f8fbc6ef03fcbbd2622e55cc1f13f7b"
"248",14,1,"""",3301,"survey-text",62,1540500,"0.0-62.0","{""Q0"":""d""}","""","""","""","2021-11-09 18:21:28","Mozilla/5.0 (Macintosh; Intel Mac OS X 10.15; rv:94.0) Gecko/20100101 Firefox/94.0","Macintosh","Firefox","94.0","OS X","10.15","8f8fbc6ef03fcbbd2622e55cc1f13f7b"
"249",14,1,"""",692,"survey-text",63,1541197,"0.0-63.0","{""Q0"":""}","""","""","""","2021-11-09 18:21:28","Mozilla/5.0 (Macintosh; Intel Mac OS X 10.15; rv:94.0) Gecko/20100101 Firefox/94.0","Macintosh","Firefox","94.0","OS X","10.15","8f8fbc6ef03fcbbd2622e55cc1f13f7b"
"250",14,1,"""",45902,"survey-text",64,1587104,"0.0-64.0","{""Q0"":""}","""","""","""","2021-11-09 18:21:28","Mozilla/5.0 (Macintosh; Intel Mac OS X 10.15; rv:94.0) Gecko/20100101 Firefox/94.0","Macintosh","Firefox","94.0","OS X","10.15","8f8fbc6ef03fcbbd2622e55cc1f13f7b"
"251",14,1,"[{""page_index"":0,""viewing_time"":1046}]",1046,"instructions",65,1588154,"0.0-65.0","""","""","""","""","2021-11-09 18:21:28","Mozilla/5.0 (Macintosh; Intel Mac OS X 10.15; rv:94.0) Gecko/20100101 Firefox/94.0","Macintosh","Firefox","94.0","OS X","10.15","8f8fbc6ef03fcbbd2622e55cc1f13f7b"
"252",16,1,"[{""page_index"":0,""viewing_time"":2402},{""page_index"":1,""viewing_time"":675},{""page_index"":2,""viewing_time"":1061}]",4139,"instructions",0,4141,"0.0-0.0","""","""","""","""","2021-11-09 18:51:25","Mozilla/5.0 (Macintosh; Intel Mac OS X 10.15; rv:94.0) Gecko/20100101 Firefox/94.0","Macintosh","Firefox","94.0","OS X","10.15","8f8fbc6ef03fcbbd2622e55cc1f13f7b"
"253",16,1,"[{""page_index"":0,""viewing_time"":893}]",893,"instructions",1,5039,"0.0-1.0","""","""","""","""","2021-11-09 18:51:25","Mozilla/5.0 (Macintosh; Intel Mac OS X 10.15; rv:94.0) Gecko/20100101 Firefox/94.0","Macintosh","Firefox","94.0","OS X","10.15","8f8fbc6ef03fcbbd2622e55cc1f13f7b"
"254",16,1,"""",31649,"survey-likert",2,36698,"0.0-2.0","{""ap_ref_tonal"":7,""rp_perceive_same"":7,""ap_produce_abref"":7,""ap_produce_tonality"":7,""rp_to_ap"":7,""ap_produce_440"":7,""rp_produce_interval"":7,""rp_name_abref"":7,""ap_perceive_same"":7,""ap_name_relation"":7,""ap_produce_interval"":7,""rp_lose"":7,""ap_id_440"":7,""rp_name_relation"":7,""rp_remember_group"":7,""ap_to_rp"":7,""ap_name_abref"":7,""ap_remember_group"":7,""rp_id_440"":7,""rp_produce_440"":7,""rp_ref_tonal"":7,""rp_id_interval"":7,""rp_produce_tonality"":7,""ap_id_interval"":7,""ap_lose"":7,""rp_produce_abref"":7}","[15,6,25,16,2,13,23,4,9,20,19,14,18,12,22,5,11,21,24,26,7,8,0,3,1,17,27,10]","""","""","2021-11-09 18:51:25","Mozilla/5.0 (Macintosh; Intel Mac OS X 10.15; rv:94.0) Gecko/20100101 Firefox/94.0","Macintosh","Firefox","94.0","OS X","10.15","8f8fbc6ef03fcbbd2622e55cc1f13f7b"
"255",16,1,"""",2668,"survey-text",3,39373,"0.0-3.0","{""Q0"":""d""}","""","""","""","2021-11-09 18:51:25","Mozilla/5.0 (Macintosh; Intel Mac OS X 10.15; rv:94.0) Gecko/20100101 Firefox/94.0","Macintosh","Firefox","94.0","OS X","10.15","8f8fbc6ef03fcbbd2622e55cc1f13f7b"
"256",16,1,"""",2045,"survey-text",4,41424,"0.0-4.0","{""Q0"":""d""}","""","""","""","2021-11-09 18:51:25","Mozilla/5.0 (Macintosh; Intel Mac OS X 10.15; rv:94.0) Gecko/20100101 Firefox/94.0","Macintosh","Firefox","94.0","OS X","10.15","8f8fbc6ef03fcbbd2622e55cc1f13f7b"
"257",16,1,"[{""page_index"":0,""viewing_time"":918}]",919,"instructions",5,42346,"0.0-5.0","""","""","""","""","2021-11-09 18:51:25","Mozilla/5.0 (Macintosh; Intel Mac OS X 10.15; rv:94.0) Gecko/20100101 Firefox/94.0","Macintosh","Firefox","94.0","OS X","10.15","8f8fbc6ef03fcbbd2622e55cc1f13f7b"
"258",16,1,"""",17471,"survey-likert",6,59826,"0.0-6.0","{""ap_impaired"":7,""rp_better_others"":7,""ap_tonedeaf"":7,""ap_trained_ap"":7,""rp_trained_ap"":7,""rp_normal"":7,""ap_better_others"":7,""ap_people_all"":7,""re_people_al"":7,""ap_normal"":7,""rp_impaired"":7,""rp_override"":7,""ap_override"":7,""rp_tonedeaf"":7}","[8,6,11,10,3,5,13,7,0,12,1,2,9,4]","""","""","2021-11-09 18:51:25","Mozilla/5.0 (Macintosh; Intel Mac OS X 10.15; rv:94.0) Gecko/20100101 Firefox/94.0","Macintosh","Firefox","94.0","OS X","10.15","8f8fbc6ef03fcbbd2622e55cc1f13f7b"
"259",16,1,"[{""page_index"":0,""viewing_time"":1204}]",1204,"instructions",7,61033,"0.0-7.0","""","""","""","""","2021-11-09 18:51:25","Mozilla/5.0 (Macintosh; Intel Mac OS X 10.15; rv:94.0) Gecko/20100101 Firefox/94.0","Macintosh","Firefox","94.0","OS X","10.15","8f8fbc6ef03fcbbd2622e55cc1f13f7b"
"260",16,1,"[{""page_index"":0,""viewing_time"":1313}]",1314,"instructions",8,62349,"0.0-8.0","""","""","""","""","2021-11-09 18:51:25","Mozilla/5.0 (Macintosh; Intel Mac OS X 10.15; rv:94.0) Gecko/20100101 Firefox/94.0","Macintosh","Firefox","94.0","OS X","10.15","8f8fbc6ef03fcbbd2622e55cc1f13f7b"
"261",16,1,"[{""page_index"":0,""viewing_time"":10820}]",10820,"instructions",9,73170,"0.0-9.0","""","""","""","""","2021-11-09 18:51:25","Mozilla/5.0 (Macintosh; Intel Mac OS X 10.15; rv:94.0) Gecko/20100101 Firefox/94.0","Macintosh","Firefox","94.0","OS X","10.15","8f8fbc6ef03fcbbd2622e55cc1f13f7b"
"262",16,1,"""",11213,"survey-likert",10,84387,"0.0-10.0","{""rp_ac_rate"":""}","[0]","""","""","2021-11-09 18:51:25","Mozilla/5.0 (Macintosh; Intel Mac OS X 10.15; rv:94.0) Gecko/20100101 Firefox/94.0","Macintosh","Firefox","94.0","OS X","10.15","8f8fbc6ef03fcbbd2622e55cc1f13f7b"
"263",16,1,"""",2373,"html-slider-response",11,86766,"0.0-11.0","40","""","<p></p>","50","2021-11-09 18:51:25","Mozilla/5.0 (Macintosh; Intel Mac OS X 10.15; rv:94.0) Gecko/20100101 Firefox/94.0","Macintosh","Firefox","94.0","OS X","10.15","8f8fbc6ef03fcbbd2622e55cc1f13f7b"
"264",16,1,"""",1170,"survey-likert",12,87940,"0.0-12.0","{""rp_ac_rate"":""}","[0]","""","""","2021-11-09 18:51:25","Mozilla/5.0 (Macintosh; Intel Mac OS X 10.15; rv:94.0) Gecko/20100101 Firefox/94.0","Macintosh","Firefox","94.0","OS X","10.15","8f8fbc6ef03fcbbd2622e55cc1f13f7b"
"265",16,1,"""",2218,"html-slider-response",13,90162,"0.0-13.0","72","""","<p></p>","50","2021-11-09 18:51:25","Mozilla/5.0 (Macintosh; Intel Mac OS X 10.15; rv:94.0) Gecko/20100101 Firefox/94.0","Macintosh","Firefox","94.0","OS X","10.15","8f8fbc6ef03fcbbd2622e55cc1f13f7b"
"266",16,1,"""",11632,"survey-likert",14,101798,"0.0-14.0","{""often"":5,""rp"":5}","[0,1,2,3]","""","""","2021-11-09 18:51:25","Mozilla/5.0 (Macintosh; Intel Mac OS X 10.15; rv:94.0) Gecko/20100101 Firefox/94.0","Macintosh","Firefox","94.0","OS X","10.15","8f8fbc6ef03fcbbd2622e55cc1f13f7b"
"267",16,1,"""",44036,"survey-text",15,145841,"0.0-15.0","{""Q0"":""}","""","""","""","2021-11-09 18:51:25","Mozilla/5.0 (Macintosh; Intel Mac OS X 10.15; rv:94.0) Gecko/20100101 Firefox/94.0","Macintosh","Firefox","94.0","OS X","10.15","8f8fbc6ef03fcbbd2622e55cc1f13f7b"
"268",16,1,"""",10186,"survey-likert",16,156034,"0.0-16.0","{""rp_ac_rate"":8}","[0,1,2,3,4]","""","""","2021-11-09 18:51:25","Mozilla/5.0 (Macintosh; Intel Mac OS X 10.15; rv:94.0) Gecko/20100101 Firefox/94.0","Macintosh","Firefox","94.0","OS X","10.15","8f8fbc6ef03fcbbd2622e55cc1f13f7b"
"269",16,1,"""",3648,"survey-text",17,159690,"0.0-17.0","{""Q0"":""}","""","""","""","2021-11-09 18:51:25","Mozilla/5.0 (Macintosh; Intel Mac OS X 10.15; rv:94.0) Gecko/20100101 Firefox/94.0","Macintosh","Firefox","94.0","OS X","10.15","8f8fbc6ef03fcbbd2622e55cc1f13f7b"
"270",16,1,"""",2333,"survey-likert",18,162026,"0.0-18.0","{""rp_ac_rate"":""}","[0,1,2,3,4]","""","""","2021-11-09 18:51:25","Mozilla/5.0 (Macintosh; Intel Mac OS X 10.15; rv:94.0) Gecko/20100101 Firefox/94.0","Macintosh","Firefox","94.0","OS X","10.15","8f8fbc6ef03fcbbd2622e55cc1f13f7b"
"271",16,1,"""",1264,"survey-text",19,163295,"0.0-19.0","{""Q0"":""}","""","""","""","2021-11-09 18:51:25","Mozilla/5.0 (Macintosh; Intel Mac OS X 10.15; rv:94.0) Gecko/20100101 Firefox/94.0","Macintosh","Firefox","94.0","OS X","10.15","8f8fbc6ef03fcbbd2622e55cc1f13f7b"
"272",16,1,"""",1215,"survey-likert",20,164514,"0.0-20.0","{""rp_ac_rate"":""}","[0,1,2,3,4]","""","""","2021-11-09 18:51:25","Mozilla/5.0 (Macintosh; Intel Mac OS X 10.15; rv:94.0) Gecko/20100101 Firefox/94.0","Macintosh","Firefox","94.0","OS X","10.15","8f8fbc6ef03fcbbd2622e55cc1f13f7b"
"273",16,1,"""",1181,"survey-text",21,165701,"0.0-21.0","{""Q0"":""}","""","""","""","2021-11-09 18:51:25","Mozilla/5.0 (Macintosh; Intel Mac OS X 10.15; rv:94.0) Gecko/20100101 Firefox/94.0","Macintosh","Firefox","94.0","OS X","10.15","8f8fbc6ef03fcbbd2622e55cc1f13f7b"
"274",16,1,"""",1205,"survey-likert",22,166910,"0.0-22.0","{""rp_ac_rate"":""}","[0,1,2,3,4]","""","""","2021-11-09 18:51:25","Mozilla/5.0 (Macintosh; Intel Mac OS X 10.15; rv:94.0) Gecko/20100101 Firefox/94.0","Macintosh","Firefox","94.0","OS X","10.15","8f8fbc6ef03fcbbd2622e55cc1f13f7b"
"275",16,1,"""",3120,"survey-text",23,170036,"0.0-23.0","{""Q0"":""}","""","""","""","2021-11-09 18:51:25","Mozilla/5.0 (Macintosh; Intel Mac OS X 10.15; rv:94.0) Gecko/20100101 Firefox/94.0","Macintosh","Firefox","94.0","OS X","10.15","8f8fbc6ef03fcbbd2622e55cc1f13f7b"
"276",16,1,"""",2221,"survey-likert",24,172263,"0.0-24.0","{""rp_ac_rate"":""}","[0,1,2,3,4]","""","""","2021-11-09 18:51:25","Mozilla/5.0 (Macintosh; Intel Mac OS X 10.15; rv:94.0) Gecko/20100101 Firefox/94.0","Macintosh","Firefox","94.0","OS X","10.15","8f8fbc6ef03fcbbd2622e55cc1f13f7b"
"277",16,1,"[{""page_index"":0,""viewing_time"":1668}]",1668,"instructions",25,173932,"0.0-25.0","""","""","""","""","2021-11-09 18:51:25","Mozilla/5.0 (Macintosh; Intel Mac OS X 10.15; rv:94.0) Gecko/20100101 Firefox/94.0","Macintosh","Firefox","94.0","OS X","10.15","8f8fbc6ef03fcbbd2622e55cc1f13f7b"
"278",16,1,"""",11958,"survey-text",26,185893,"0.0-26.0","{""Q0"":""}","""","""","""","2021-11-09 18:51:25","Mozilla/5.0 (Macintosh; Intel Mac OS X 10.15; rv:94.0) Gecko/20100101 Firefox/94.0","Macintosh","Firefox","94.0","OS X","10.15","8f8fbc6ef03fcbbd2622e55cc1f13f7b"
"279",16,1,"""",9646,"survey-likert",27,195547,"0.0-27.0","{""rp_ac_rate"":8}","[0,1,2,3,4]","""","""","2021-11-09 18:51:25","Mozilla/5.0 (Macintosh; Intel Mac OS X 10.15; rv:94.0) Gecko/20100101 Firefox/94.0","Macintosh","Firefox","94.0","OS X","10.15","8f8fbc6ef03fcbbd2622e55cc1f13f7b"
"280",16,1,"""",1442,"survey-text",28,196996,"0.0-28.0","{""Q0"":""}","""","""","""","2021-11-09 18:51:25","Mozilla/5.0 (Macintosh; Intel Mac OS X 10.15; rv:94.0) Gecko/20100101 Firefox/94.0","Macintosh","Firefox","94.0","OS X","10.15","8f8fbc6ef03fcbbd2622e55cc1f13f7b"
"281",16,1,"""",1046,"survey-likert",29,198048,"0.0-29.0","{""rp_ac_rate"":""}","[0,1,2,3,4]","""","""","2021-11-09 18:51:25","Mozilla/5.0 (Macintosh; Intel Mac OS X 10.15; rv:94.0) Gecko/20100101 Firefox/94.0","Macintosh","Firefox","94.0","OS X","10.15","8f8fbc6ef03fcbbd2622e55cc1f13f7b"
"282",16,1,"""",983,"survey-text",30,199039,"0.0-30.0","{""Q0"":""}","""","""","""","2021-11-09 18:51:25","Mozilla/5.0 (Macintosh; Intel Mac OS X 10.15; rv:94.0) Gecko/20100101 Firefox/94.0","Macintosh","Firefox","94.0","OS X","10.15","8f8fbc6ef03fcbbd2622e55cc1f13f7b"
"283",16,1,"""",1002,"survey-likert",31,200044,"0.0-31.0","{""rp_ac_rate"":""}","[0,1,2,3,4]","""","""","2021-11-09 18:51:25","Mozilla/5.0 (Macintosh; Intel Mac OS X 10.15; rv:94.0) Gecko/20100101 Firefox/94.0","Macintosh","Firefox","94.0","OS X","10.15","8f8fbc6ef03fcbbd2622e55cc1f13f7b"
"284",16,1,"""",916,"survey-text",32,200965,"0.0-32.0","{""Q0"":""}","""","""","""","2021-11-09 18:51:25","Mozilla/5.0 (Macintosh; Intel Mac OS X 10.15; rv:94.0) Gecko/20100101 Firefox/94.0","Macintosh","Firefox","94.0","OS X","10.15","8f8fbc6ef03fcbbd2622e55cc1f13f7b"
"285",16,1,"""",1227,"survey-likert",33,202196,"0.0-33.0","{""rp_ac_rate"":""}","[0,1,2,3,4]","""","""","2021-11-09 18:51:25","Mozilla/5.0 (Macintosh; Intel Mac OS X 10.15; rv:94.0) Gecko/20100101 Firefox/94.0","Macintosh","Firefox","94.0","OS X","10.15","8f8fbc6ef03fcbbd2622e55cc1f13f7b"
"286",16,1,"""",967,"survey-text",34,203170,"0.0-34.0","{""Q0"":""}","""","""","""","2021-11-09 18:51:25","Mozilla/5.0 (Macintosh; Intel Mac OS X 10.15; rv:94.0) Gecko/20100101 Firefox/94.0","Macintosh","Firefox","94.0","OS X","10.15","8f8fbc6ef03fcbbd2622e55cc1f13f7b"
"287",16,1,"""",1035,"survey-likert",35,204207,"0.0-35.0","{""rp_ac_rate"":""}","[0,1,2,3,4]","""","""","2021-11-09 18:51:25","Mozilla/5.0 (Macintosh; Intel Mac OS X 10.15; rv:94.0) Gecko/20100101 Firefox/94.0","Macintosh","Firefox","94.0","OS X","10.15","8f8fbc6ef03fcbbd2622e55cc1f13f7b"
"288",16,1,"""",407525,"survey-text",36,611746,"0.0-36.0","{""Q0"":""}","""","""","""","2021-11-09 18:51:25","Mozilla/5.0 (Macintosh; Intel Mac OS X 10.15; rv:94.0) Gecko/20100101 Firefox/94.0","Macintosh","Firefox","94.0","OS X","10.15","8f8fbc6ef03fcbbd2622e55cc1f13f7b"
"289",16,1,"""",7695,"html-slider-response",37,619448,"0.0-37.0","25","""","<p></p>","50","2021-11-09 18:51:25","Mozilla/5.0 (Macintosh; Intel Mac OS X 10.15; rv:94.0) Gecko/20100101 Firefox/94.0","Macintosh","Firefox","94.0","OS X","10.15","8f8fbc6ef03fcbbd2622e55cc1f13f7b"
"290",16,1,"""",4594,"survey-text",38,624048,"0.0-38.0","{""Q0"":""d""}","""","""","""","2021-11-09 18:51:25","Mozilla/5.0 (Macintosh; Intel Mac OS X 10.15; rv:94.0) Gecko/20100101 Firefox/94.0","Macintosh","Firefox","94.0","OS X","10.15","8f8fbc6ef03fcbbd2622e55cc1f13f7b"
"291",16,1,"""",2445,"survey-text",39,626499,"0.0-39.0","{""Q0"":""}","""","""","""","2021-11-09 18:51:25","Mozilla/5.0 (Macintosh; Intel Mac OS X 10.15; rv:94.0) Gecko/20100101 Firefox/94.0","Macintosh","Firefox","94.0","OS X","10.15","8f8fbc6ef03fcbbd2622e55cc1f13f7b"
"292",16,1,"""",3898,"html-slider-response",40,630400,"0.0-40.0","82","""","<p></p>","50","2021-11-09 18:51:25","Mozilla/5.0 (Macintosh; Intel Mac OS X 10.15; rv:94.0) Gecko/20100101 Firefox/94.0","Macintosh","Firefox","94.0","OS X","10.15","8f8fbc6ef03fcbbd2622e55cc1f13f7b"
"293",16,1,"[{""page_index"":0,""viewing_time"":2675}]",2675,"instructions",41,633078,"0.0-41.0","""","""","""","""","2021-11-09 18:51:25","Mozilla/5.0 (Macintosh; Intel Mac OS X 10.15; rv:94.0) Gecko/20100101 Firefox/94.0","Macintosh","Firefox","94.0","OS X","10.15","8f8fbc6ef03fcbbd2622e55cc1f13f7b"
"294",16,1,"[{""page_index"":0,""viewing_time"":6223}]",6223,"instructions",42,639304,"0.0-42.0","""","""","""","""","2021-11-09 18:51:25","Mozilla/5.0 (Macintosh; Intel Mac OS X 10.15; rv:94.0) Gecko/20100101 Firefox/94.0","Macintosh","Firefox","94.0","OS X","10.15","8f8fbc6ef03fcbbd2622e55cc1f13f7b"
"295",16,1,"""",11069,"survey-multi-select",43,650388,"0.0-43.0","{""Colors"":[""High school choir""]}","[0]","""","""","2021-11-09 18:51:25","Mozilla/5.0 (Macintosh; Intel Mac OS X 10.15; rv:94.0) Gecko/20100101 Firefox/94.0","Macintosh","Firefox","94.0","OS X","10.15","8f8fbc6ef03fcbbd2622e55cc1f13f7b"
"296",16,1,"""",2400,"survey-text",44,652791,"0.0-44.0","{""Q0"":""d""}","""","""","""","2021-11-09 18:51:25","Mozilla/5.0 (Macintosh; Intel Mac OS X 10.15; rv:94.0) Gecko/20100101 Firefox/94.0","Macintosh","Firefox","94.0","OS X","10.15","8f8fbc6ef03fcbbd2622e55cc1f13f7b"
"297",16,1,"""",3776,"survey-multi-select",45,656575,"0.0-45.0","{""Colors"":[""Ph.D. in Composition""]}","[0]","""","""","2021-11-09 18:51:25","Mozilla/5.0 (Macintosh; Intel Mac OS X 10.15; rv:94.0) Gecko/20100101 Firefox/94.0","Macintosh","Firefox","94.0","OS X","10.15","8f8fbc6ef03fcbbd2622e55cc1f13f7b"
"298",16,1,"""",2042,"survey-text",46,658622,"0.0-46.0","{""Q0"":""d""}","""","""","""","2021-11-09 18:51:25","Mozilla/5.0 (Macintosh; Intel Mac OS X 10.15; rv:94.0) Gecko/20100101 Firefox/94.0","Macintosh","Firefox","94.0","OS X","10.15","8f8fbc6ef03fcbbd2622e55cc1f13f7b"
"299",16,1,"""",7611,"survey-multi-select",47,666239,"0.0-47.0","{""Colors"":[""Music Department within a liberal arts college"",""Music Department within a university""]}","[0]","""","""","2021-11-09 18:51:25","Mozilla/5.0 (Macintosh; Intel Mac OS X 10.15; rv:94.0) Gecko/20100101 Firefox/94.0","Macintosh","Firefox","94.0","OS X","10.15","8f8fbc6ef03fcbbd2622e55cc1f13f7b"
"300",16,1,"""",11707,"survey-multi-select",48,677951,"0.0-48.0","{""Colors"":[""Full-Time Tenured"",""I am not currently employed as a teacher""]}","[0]","""","""","2021-11-09 18:51:25","Mozilla/5.0 (Macintosh; Intel Mac OS X 10.15; rv:94.0) Gecko/20100101 Firefox/94.0","Macintosh","Firefox","94.0","OS X","10.15","8f8fbc6ef03fcbbd2622e55cc1f13f7b"
"301",16,1,"[{""page_index"":0,""viewing_time"":64032}]",64033,"instructions",49,741989,"0.0-49.0","""","""","""","""","2021-11-09 18:51:25","Mozilla/5.0 (Macintosh; Intel Mac OS X 10.15; rv:94.0) Gecko/20100101 Firefox/94.0","Macintosh","Firefox","94.0","OS X","10.15","8f8fbc6ef03fcbbd2622e55cc1f13f7b"
"302",16,1,"""",2895,"survey-text",50,744889,"0.0-50.0","{""Q0"":""d""}","""","""","""","2021-11-09 18:51:25","Mozilla/5.0 (Macintosh; Intel Mac OS X 10.15; rv:94.0) Gecko/20100101 Firefox/94.0","Macintosh","Firefox","94.0","OS X","10.15","8f8fbc6ef03fcbbd2622e55cc1f13f7b"
"303",16,1,"""",5641,"survey-multi-select",51,750535,"0.0-51.0","{""Colors"":[""Curwen or Kodaly hand symbols""]}","[0]","""","""","2021-11-09 18:51:25","Mozilla/5.0 (Macintosh; Intel Mac OS X 10.15; rv:94.0) Gecko/20100101 Firefox/94.0","Macintosh","Firefox","94.0","OS X","10.15","8f8fbc6ef03fcbbd2622e55cc1f13f7b"
"304",16,1,"""",2602,"survey-multi-select",52,753143,"0.0-52.0","{""Colors"":[""Curwen or Kodaly hand symbols""]}","[0]","""","""","2021-11-09 18:51:25","Mozilla/5.0 (Macintosh; Intel Mac OS X 10.15; rv:94.0) Gecko/20100101 Firefox/94.0","Macintosh","Firefox","94.0","OS X","10.15","8f8fbc6ef03fcbbd2622e55cc1f13f7b"
