run_id,condition,view_history,rt,trial_type,trial_index,time_elapsed,internal_node_id,response,question_order,recorded_at,ip,user_agent,device,browser,browser_version,platform,platform_version
4,1,"[{""page_index"":0,""viewing_time"":3325},{""page_index"":1,""viewing_time"":1320},{""page_index"":2,""viewing_time"":7938},{""page_index"":3,""viewing_time"":5300}]",17883,instructions,0,17894,0.0-0.0,"""","""","2021-06-21 12:11:11",73.173.53.236,"Mozilla/5.0 (Macintosh; Intel Mac OS X 10.15; rv:89.0) Gecko/20100101 Firefox/89.0",Macintosh,Firefox,89.0,"OS X",10.15
4,1,"[{""page_index"":0,""viewing_time"":1833}]",1833,instructions,1,19731,0.0-1.0,"""","""","2021-06-21 12:11:11",73.173.53.236,"Mozilla/5.0 (Macintosh; Intel Mac OS X 10.15; rv:89.0) Gecko/20100101 Firefox/89.0",Macintosh,Firefox,89.0,"OS X",10.15
4,1,"""",59280,survey-likert,2,79019,0.0-2.0,"{""rp_id_440"":4,""ap_produce_interval"":4,""rp_id_abref"":2,""ap_produce_440"":2,""rp_ref_tonal"":4,""rp_produce_abref"":2,""ap_produce_tonality"":4,""ap_name_abref"":2,""rp_produce_tonality"":4,""rp_name_relation"":1,""rp_produce_440"":2,""ap_name_relation"":4,""rp_id_interval"":2,""rp_remember_group"":1,""rp_name_abref"":4,""ap_ref_tonal"":4,""ap_id_abref"":4,""ap_lose"":4,""rp_lose"":4,""ap_perceive_same"":4,""ap_id_440"":2,""ap_id_interval"":3,""rp_produce_interval"":3,""ap_produce_abref"":2,""ap_remember_group"":3,""rp_perceive_same"":2}","[6,16,8,20,0,10,14,22,1,4,7,17,2,11,9,13,21,25,12,18,19,15,3,23,24,5]","2021-06-21 12:11:11",73.173.53.236,"Mozilla/5.0 (Macintosh; Intel Mac OS X 10.15; rv:89.0) Gecko/20100101 Firefox/89.0",Macintosh,Firefox,89.0,"OS X",10.15
4,1,"""",4154,survey-text,3,83181,0.0-3.0,"{""Q0"":""a""}","""","2021-06-21 12:11:11",73.173.53.236,"Mozilla/5.0 (Macintosh; Intel Mac OS X 10.15; rv:89.0) Gecko/20100101 Firefox/89.0",Macintosh,Firefox,89.0,"OS X",10.15
4,1,"""",1876,survey-text,4,85062,0.0-4.0,"{""Q0"":""b""}","""","2021-06-21 12:11:11",73.173.53.236,"Mozilla/5.0 (Macintosh; Intel Mac OS X 10.15; rv:89.0) Gecko/20100101 Firefox/89.0",Macintosh,Firefox,89.0,"OS X",10.15
4,1,"[{""page_index"":0,""viewing_time"":4907}]",4908,instructions,5,89971,0.0-5.0,"""","""","2021-06-21 12:11:11",73.173.53.236,"Mozilla/5.0 (Macintosh; Intel Mac OS X 10.15; rv:89.0) Gecko/20100101 Firefox/89.0",Macintosh,Firefox,89.0,"OS X",10.15
4,1,"""",12342,survey-likert,6,102316,0.0-6.0,"{""rp_better_others"":3,""rp_tonedeaf"":2,""rp_normal"":4,""re_people_al"":4,""rp_trained_ap"":4}","[4,2,3,0,1]","2021-06-21 12:11:11",73.173.53.236,"Mozilla/5.0 (Macintosh; Intel Mac OS X 10.15; rv:89.0) Gecko/20100101 Firefox/89.0",Macintosh,Firefox,89.0,"OS X",10.15
4,1,"[{""page_index"":0,""viewing_time"":3522}]",3522,instructions,7,105839,0.0-7.0,"""","""","2021-06-21 12:11:11",73.173.53.236,"Mozilla/5.0 (Macintosh; Intel Mac OS X 10.15; rv:89.0) Gecko/20100101 Firefox/89.0",Macintosh,Firefox,89.0,"OS X",10.15
4,1,"""",12276,survey-likert,8,118118,0.0-8.0,"{""ap_people_all"":3,""ap_trained_ap"":2,""ap_normal"":3,""ap_tonedeaf"":2,""ap_better_others"":3}","[0,1,3,2,4]","2021-06-21 12:11:11",73.173.53.236,"Mozilla/5.0 (Macintosh; Intel Mac OS X 10.15; rv:89.0) Gecko/20100101 Firefox/89.0",Macintosh,Firefox,89.0,"OS X",10.15
4,1,"[{""page_index"":0,""viewing_time"":9076}]",9076,instructions,9,127196,0.0-9.0,"""","""","2021-06-21 12:11:11",73.173.53.236,"Mozilla/5.0 (Macintosh; Intel Mac OS X 10.15; rv:89.0) Gecko/20100101 Firefox/89.0",Macintosh,Firefox,89.0,"OS X",10.15
4,1,"[{""page_index"":0,""viewing_time"":7221}]",7221,instructions,10,134421,0.0-10.0,"""","""","2021-06-21 12:11:11",73.173.53.236,"Mozilla/5.0 (Macintosh; Intel Mac OS X 10.15; rv:89.0) Gecko/20100101 Firefox/89.0",Macintosh,Firefox,89.0,"OS X",10.15
4,1,"[{""page_index"":0,""viewing_time"":4692}]",4692,instructions,11,139115,0.0-11.0,"""","""","2021-06-21 12:11:11",73.173.53.236,"Mozilla/5.0 (Macintosh; Intel Mac OS X 10.15; rv:89.0) Gecko/20100101 Firefox/89.0",Macintosh,Firefox,89.0,"OS X",10.15
4,1,"""",7025,survey-likert,12,146143,0.0-12.0,"{""rp_impaired"":1,""rp_to_ap"":4,""ap_override"":4}","[1,2,0]","2021-06-21 12:11:11",73.173.53.236,"Mozilla/5.0 (Macintosh; Intel Mac OS X 10.15; rv:89.0) Gecko/20100101 Firefox/89.0",Macintosh,Firefox,89.0,"OS X",10.15
4,1,"[{""page_index"":0,""viewing_time"":1444},{""page_index"":1,""viewing_time"":1767}]",3211,instructions,13,149358,0.0-13.0,"""","""","2021-06-21 12:11:11",73.173.53.236,"Mozilla/5.0 (Macintosh; Intel Mac OS X 10.15; rv:89.0) Gecko/20100101 Firefox/89.0",Macintosh,Firefox,89.0,"OS X",10.15
4,1,"""",3085,survey-text,14,152447,0.0-14.0,"{""Q0"":""test""}","""","2021-06-21 12:11:11",73.173.53.236,"Mozilla/5.0 (Macintosh; Intel Mac OS X 10.15; rv:89.0) Gecko/20100101 Firefox/89.0",Macintosh,Firefox,89.0,"OS X",10.15
4,1,"""",2985,survey-text,15,155437,0.0-15.0,"{""Q0"":""test""}","""","2021-06-21 12:11:11",73.173.53.236,"Mozilla/5.0 (Macintosh; Intel Mac OS X 10.15; rv:89.0) Gecko/20100101 Firefox/89.0",Macintosh,Firefox,89.0,"OS X",10.15
4,1,"[{""page_index"":0,""viewing_time"":6481}]",6481,instructions,16,161919,0.0-16.0,"""","""","2021-06-21 12:11:11",73.173.53.236,"Mozilla/5.0 (Macintosh; Intel Mac OS X 10.15; rv:89.0) Gecko/20100101 Firefox/89.0",Macintosh,Firefox,89.0,"OS X",10.15
4,1,"""",8988,survey-multi-select,17,170913,0.0-17.0,"{""Colors"":[""Music theory (aural)""]}",[0],"2021-06-21 12:11:11",73.173.53.236,"Mozilla/5.0 (Macintosh; Intel Mac OS X 10.15; rv:89.0) Gecko/20100101 Firefox/89.0",Macintosh,Firefox,89.0,"OS X",10.15
4,1,"""",4428,survey-text,18,175346,0.0-18.0,"{""Q0"":""}","""","2021-06-21 12:11:11",73.173.53.236,"Mozilla/5.0 (Macintosh; Intel Mac OS X 10.15; rv:89.0) Gecko/20100101 Firefox/89.0",Macintosh,Firefox,89.0,"OS X",10.15
4,1,"""",8584,survey-multi-select,19,183933,0.0-19.0,"{""Colors"":[""HS diploma"",""Bachelor’s in music"",""Master’s in music"",""DMA"",""Ph.D. in Music Theory/Musicology""]}",[0],"2021-06-21 12:11:11",73.173.53.236,"Mozilla/5.0 (Macintosh; Intel Mac OS X 10.15; rv:89.0) Gecko/20100101 Firefox/89.0",Macintosh,Firefox,89.0,"OS X",10.15
4,1,"""",3453,survey-text,20,187388,0.0-20.0,"{""Q0"":""}","""","2021-06-21 12:11:11",73.173.53.236,"Mozilla/5.0 (Macintosh; Intel Mac OS X 10.15; rv:89.0) Gecko/20100101 Firefox/89.0",Macintosh,Firefox,89.0,"OS X",10.15
4,1,"""",3873,survey-multi-select,21,191267,0.0-21.0,"{""Colors"":[""Conservatory-style professional music school (within a university)""]}",[0],"2021-06-21 12:11:11",73.173.53.236,"Mozilla/5.0 (Macintosh; Intel Mac OS X 10.15; rv:89.0) Gecko/20100101 Firefox/89.0",Macintosh,Firefox,89.0,"OS X",10.15
4,1,"""",2996,survey-multi-select,22,194268,0.0-22.0,"{""Colors"":[""Full-Time Non-Tenure Eligible""]}",[0],"2021-06-21 12:11:11",73.173.53.236,"Mozilla/5.0 (Macintosh; Intel Mac OS X 10.15; rv:89.0) Gecko/20100101 Firefox/89.0",Macintosh,Firefox,89.0,"OS X",10.15
4,1,"[{""page_index"":0,""viewing_time"":1730}]",1730,instructions,23,196002,0.0-23.0,"""","""","2021-06-21 12:11:11",73.173.53.236,"Mozilla/5.0 (Macintosh; Intel Mac OS X 10.15; rv:89.0) Gecko/20100101 Firefox/89.0",Macintosh,Firefox,89.0,"OS X",10.15
4,1,"""",1635,survey-text,24,197640,0.0-24.0,"{""Q0"":""}","""","2021-06-21 12:11:11",73.173.53.236,"Mozilla/5.0 (Macintosh; Intel Mac OS X 10.15; rv:89.0) Gecko/20100101 Firefox/89.0",Macintosh,Firefox,89.0,"OS X",10.15
4,1,"""",4069,survey-multi-select,25,201712,0.0-25.0,"{""Colors"":[""Moveable-Do (Do-based minor)""]}",[0],"2021-06-21 12:11:11",73.173.53.236,"Mozilla/5.0 (Macintosh; Intel Mac OS X 10.15; rv:89.0) Gecko/20100101 Firefox/89.0",Macintosh,Firefox,89.0,"OS X",10.15
4,1,"""",6316,survey-multi-select,26,208033,0.0-26.0,"{""Colors"":[""Moveable-Do (Do-based minor)""]}",[0],"2021-06-21 12:11:11",73.173.53.236,"Mozilla/5.0 (Macintosh; Intel Mac OS X 10.15; rv:89.0) Gecko/20100101 Firefox/89.0",Macintosh,Firefox,89.0,"OS X",10.15
4,1,"""",4602,survey-multi-select,27,212638,0.0-27.0,"{""Colors"":[""Moveable-Do (La-based minor)""]}",[0],"2021-06-21 12:11:11",73.173.53.236,"Mozilla/5.0 (Macintosh; Intel Mac OS X 10.15; rv:89.0) Gecko/20100101 Firefox/89.0",Macintosh,Firefox,89.0,"OS X",10.15
4,1,"""",3366,survey-text,28,216008,0.0-28.0,"{""Q0"":""}","""","2021-06-21 12:11:11",73.173.53.236,"Mozilla/5.0 (Macintosh; Intel Mac OS X 10.15; rv:89.0) Gecko/20100101 Firefox/89.0",Macintosh,Firefox,89.0,"OS X",10.15
4,1,"""",6238,survey-likert,29,222249,0.0-29.0,"{""often"":1,""rp"":1}","[0,1]","2021-06-21 12:11:11",73.173.53.236,"Mozilla/5.0 (Macintosh; Intel Mac OS X 10.15; rv:89.0) Gecko/20100101 Firefox/89.0",Macintosh,Firefox,89.0,"OS X",10.15
4,1,"""",8745,survey-multi-choice,30,230997,0.0-30.0,"{""Vegetables"":""Yes"",""Fruit"":""No"",""Fruitz"":""Yes""}","[0,1,2]","2021-06-21 12:11:11",73.173.53.236,"Mozilla/5.0 (Macintosh; Intel Mac OS X 10.15; rv:89.0) Gecko/20100101 Firefox/89.0",Macintosh,Firefox,89.0,"OS X",10.15
4,1,"""",9215,survey-multi-select,31,240216,0.0-31.0,"{""Colors"":[""Conservatory-style professional music school (within a university)""]}",[0],"2021-06-21 12:11:11",73.173.53.236,"Mozilla/5.0 (Macintosh; Intel Mac OS X 10.15; rv:89.0) Gecko/20100101 Firefox/89.0",Macintosh,Firefox,89.0,"OS X",10.15
4,1,"""",2142,survey-text,32,242362,0.0-32.0,"{""Q0"":""}","""","2021-06-21 12:11:11",73.173.53.236,"Mozilla/5.0 (Macintosh; Intel Mac OS X 10.15; rv:89.0) Gecko/20100101 Firefox/89.0",Macintosh,Firefox,89.0,"OS X",10.15
4,1,"""",3628,survey-multi-select,33,245993,0.0-33.0,"{""Colors"":[""Masters (MM)""]}",[0],"2021-06-21 12:11:11",73.173.53.236,"Mozilla/5.0 (Macintosh; Intel Mac OS X 10.15; rv:89.0) Gecko/20100101 Firefox/89.0",Macintosh,Firefox,89.0,"OS X",10.15
4,1,"""",4056,survey-multi-select,34,250053,0.0-34.0,"{""Colors"":[""Full-time tenure eligible""]}",[0],"2021-06-21 12:11:11",73.173.53.236,"Mozilla/5.0 (Macintosh; Intel Mac OS X 10.15; rv:89.0) Gecko/20100101 Firefox/89.0",Macintosh,Firefox,89.0,"OS X",10.15
4,1,"""",4544,survey-multi-select,35,254600,0.0-35.0,"{""Colors"":[""Graduate degree in performance""]}",[0],"2021-06-21 12:11:11",73.173.53.236,"Mozilla/5.0 (Macintosh; Intel Mac OS X 10.15; rv:89.0) Gecko/20100101 Firefox/89.0",Macintosh,Firefox,89.0,"OS X",10.15
4,1,"""",1268,survey-text,36,255871,0.0-36.0,"{""Q0"":""}","""","2021-06-21 12:11:11",73.173.53.236,"Mozilla/5.0 (Macintosh; Intel Mac OS X 10.15; rv:89.0) Gecko/20100101 Firefox/89.0",Macintosh,Firefox,89.0,"OS X",10.15
4,1,"""",1944,survey-text,37,257817,0.0-37.0,"{""Q0"":""}","""","2021-06-21 12:11:11",73.173.53.236,"Mozilla/5.0 (Macintosh; Intel Mac OS X 10.15; rv:89.0) Gecko/20100101 Firefox/89.0",Macintosh,Firefox,89.0,"OS X",10.15
4,1,"""",6724,survey-text,38,264544,0.0-38.0,"{""Q0"":""}","""","2021-06-21 12:11:11",73.173.53.236,"Mozilla/5.0 (Macintosh; Intel Mac OS X 10.15; rv:89.0) Gecko/20100101 Firefox/89.0",Macintosh,Firefox,89.0,"OS X",10.15
4,1,"""",4326,survey-text,39,268876,0.0-39.0,"{""Q0"":""}","""","2021-06-21 12:11:11",73.173.53.236,"Mozilla/5.0 (Macintosh; Intel Mac OS X 10.15; rv:89.0) Gecko/20100101 Firefox/89.0",Macintosh,Firefox,89.0,"OS X",10.15
4,1,"[{""page_index"":0,""viewing_time"":9301}]",9301,instructions,40,278180,0.0-40.0,"""","""","2021-06-21 12:11:11",73.173.53.236,"Mozilla/5.0 (Macintosh; Intel Mac OS X 10.15; rv:89.0) Gecko/20100101 Firefox/89.0",Macintosh,Firefox,89.0,"OS X",10.15
