run_id,condition,view_history,rt,trial_type,trial_index,time_elapsed,internal_node_id,response,question_order,recorded_at,ip,user_agent,device,browser,browser_version,platform,platform_version
13,1,"[{""page_index"":0,""viewing_time"":6960.799999952316},{""page_index"":1,""viewing_time"":798.7999999523163},{""page_index"":2,""viewing_time"":2430.4000000953674},{""page_index"":3,""viewing_time"":19890.599999904633}]",30081.200000047684,instructions,0,30109,0.0-0.0,"""","""","2021-07-12 15:13:12",64.137.131.82,"Mozilla/5.0 (Macintosh; Intel Mac OS X 10_15_7) AppleWebKit/537.36 (KHTML, like Gecko) Chrome/91.0.4472.114 Safari/537.36",Macintosh,Chrome,91.0.4472.114,"OS X",10_15_7
13,1,"[{""page_index"":0,""viewing_time"":9700.299999952316}]",9700.400000095367,instructions,1,39816,0.0-1.0,"""","""","2021-07-12 15:13:12",64.137.131.82,"Mozilla/5.0 (Macintosh; Intel Mac OS X 10_15_7) AppleWebKit/537.36 (KHTML, like Gecko) Chrome/91.0.4472.114 Safari/537.36",Macintosh,Chrome,91.0.4472.114,"OS X",10_15_7
13,1,"""",381905.10000014305,survey-likert,2,421729,0.0-2.0,"{""rp_name_relation"":2,""ap_ref_tonal"":3,""rp_to_ap"":4,""ap_name_relation"":5,""ap_produce_abref"":6,""ap_id_440"":5,""ap_lose"":4,""ap_to_rp"":3,""ap_remember_group"":2,""ap_produce_440"":1,""rp_name_abref"":1,""ap_name_abref"":2,""rp_lose"":4,""rp_remember_group"":5,""rp_id_440"":6,""ap_perceive_same"":5,""rp_produce_interval"":4,""rp_produce_tonality"":3,""ap_produce_tonality"":2,""rp_ref_tonal"":1,""rp_perceive_same"":0,""rp_produce_440"":1,""ap_produce_interval"":2,""rp_produce_abref"":3,""ap_id_interval"":4,""rp_id_interval"":3}","[5,2,13,19,25,22,27,21,26,23,14,9,24,15,12,11,7,20,4,1,16,0,6,8,18,10,17,3]","2021-07-12 15:13:12",64.137.131.82,"Mozilla/5.0 (Macintosh; Intel Mac OS X 10_15_7) AppleWebKit/537.36 (KHTML, like Gecko) Chrome/91.0.4472.114 Safari/537.36",Macintosh,Chrome,91.0.4472.114,"OS X",10_15_7
13,1,"""",6702.299999952316,survey-text,3,428444,0.0-3.0,"{""Q0"":""}","""","2021-07-12 15:13:12",64.137.131.82,"Mozilla/5.0 (Macintosh; Intel Mac OS X 10_15_7) AppleWebKit/537.36 (KHTML, like Gecko) Chrome/91.0.4472.114 Safari/537.36",Macintosh,Chrome,91.0.4472.114,"OS X",10_15_7
13,1,"""",6747.800000190735,survey-text,4,435194,0.0-4.0,"{""Q0"":""}","""","2021-07-12 15:13:12",64.137.131.82,"Mozilla/5.0 (Macintosh; Intel Mac OS X 10_15_7) AppleWebKit/537.36 (KHTML, like Gecko) Chrome/91.0.4472.114 Safari/537.36",Macintosh,Chrome,91.0.4472.114,"OS X",10_15_7
13,1,"[{""page_index"":0,""viewing_time"":1933.3999998569489}]",1934.3999998569489,instructions,5,437129,0.0-5.0,"""","""","2021-07-12 15:13:12",64.137.131.82,"Mozilla/5.0 (Macintosh; Intel Mac OS X 10_15_7) AppleWebKit/537.36 (KHTML, like Gecko) Chrome/91.0.4472.114 Safari/537.36",Macintosh,Chrome,91.0.4472.114,"OS X",10_15_7
13,1,"""",41837.700000047684,survey-likert,6,478972,0.0-6.0,"{""ap_better_others"":0,""rp_override"":0,""rp_trained_ap"":0,""rp_normal"":0,""ap_override"":0,""ap_people_all"":0,""rp_better_others"":0,""rp_impaired"":0,""ap_tonedeaf"":0,""ap_normal"":0,""rp_tonedeaf"":0,""ap_impaired"":0,""re_people_al"":0,""ap_trained_ap"":0}","[13,2,3,5,9,7,6,1,11,12,4,8,0,10]","2021-07-12 15:13:12",64.137.131.82,"Mozilla/5.0 (Macintosh; Intel Mac OS X 10_15_7) AppleWebKit/537.36 (KHTML, like Gecko) Chrome/91.0.4472.114 Safari/537.36",Macintosh,Chrome,91.0.4472.114,"OS X",10_15_7
13,1,"[{""page_index"":0,""viewing_time"":27409.799999952316}]",27411,instructions,7,506385,0.0-7.0,"""","""","2021-07-12 15:13:12",64.137.131.82,"Mozilla/5.0 (Macintosh; Intel Mac OS X 10_15_7) AppleWebKit/537.36 (KHTML, like Gecko) Chrome/91.0.4472.114 Safari/537.36",Macintosh,Chrome,91.0.4472.114,"OS X",10_15_7
13,1,"[{""page_index"":0,""viewing_time"":5567.700000047684}]",5568.800000190735,instructions,8,511954,0.0-8.0,"""","""","2021-07-12 15:13:12",64.137.131.82,"Mozilla/5.0 (Macintosh; Intel Mac OS X 10_15_7) AppleWebKit/537.36 (KHTML, like Gecko) Chrome/91.0.4472.114 Safari/537.36",Macintosh,Chrome,91.0.4472.114,"OS X",10_15_7
13,1,"[{""page_index"":0,""viewing_time"":491532.69999980927}]",491533.2999999523,instructions,9,1003487,0.0-9.0,"""","""","2021-07-12 15:13:12",64.137.131.82,"Mozilla/5.0 (Macintosh; Intel Mac OS X 10_15_7) AppleWebKit/537.36 (KHTML, like Gecko) Chrome/91.0.4472.114 Safari/537.36",Macintosh,Chrome,91.0.4472.114,"OS X",10_15_7
13,1,"""",127776.60000014305,survey-text,10,1131265,0.0-10.0,"{""Q0"":""}","""","2021-07-12 15:13:12",64.137.131.82,"Mozilla/5.0 (Macintosh; Intel Mac OS X 10_15_7) AppleWebKit/537.36 (KHTML, like Gecko) Chrome/91.0.4472.114 Safari/537.36",Macintosh,Chrome,91.0.4472.114,"OS X",10_15_7
13,1,"""",641102.7000000477,survey-likert,11,1772368,0.0-11.0,"{""X"":"",""Y"":"",""Z"":""}","[0,1,2]","2021-07-12 15:13:12",64.137.131.82,"Mozilla/5.0 (Macintosh; Intel Mac OS X 10_15_7) AppleWebKit/537.36 (KHTML, like Gecko) Chrome/91.0.4472.114 Safari/537.36",Macintosh,Chrome,91.0.4472.114,"OS X",10_15_7
13,1,"""",13587.299999952316,survey-text,12,1785958,0.0-12.0,"{""Q0"":""}","""","2021-07-12 15:13:12",64.137.131.82,"Mozilla/5.0 (Macintosh; Intel Mac OS X 10_15_7) AppleWebKit/537.36 (KHTML, like Gecko) Chrome/91.0.4472.114 Safari/537.36",Macintosh,Chrome,91.0.4472.114,"OS X",10_15_7
13,1,"""",5138.699999809265,survey-likert,13,1791099,0.0-13.0,"{""X"":"",""Y"":"",""Z"":""}","[0,1,2]","2021-07-12 15:13:12",64.137.131.82,"Mozilla/5.0 (Macintosh; Intel Mac OS X 10_15_7) AppleWebKit/537.36 (KHTML, like Gecko) Chrome/91.0.4472.114 Safari/537.36",Macintosh,Chrome,91.0.4472.114,"OS X",10_15_7
13,1,"""",1358.4000000953674,survey-text,14,1792460,0.0-14.0,"{""Q0"":""}","""","2021-07-12 15:13:12",64.137.131.82,"Mozilla/5.0 (Macintosh; Intel Mac OS X 10_15_7) AppleWebKit/537.36 (KHTML, like Gecko) Chrome/91.0.4472.114 Safari/537.36",Macintosh,Chrome,91.0.4472.114,"OS X",10_15_7
13,1,"""",920.5,survey-likert,15,1793383,0.0-15.0,"{""X"":"",""Y"":"",""Z"":""}","[0,1,2]","2021-07-12 15:13:12",64.137.131.82,"Mozilla/5.0 (Macintosh; Intel Mac OS X 10_15_7) AppleWebKit/537.36 (KHTML, like Gecko) Chrome/91.0.4472.114 Safari/537.36",Macintosh,Chrome,91.0.4472.114,"OS X",10_15_7
13,1,"""",1437.2000000476837,survey-text,16,1794823,0.0-16.0,"{""Q0"":""}","""","2021-07-12 15:13:12",64.137.131.82,"Mozilla/5.0 (Macintosh; Intel Mac OS X 10_15_7) AppleWebKit/537.36 (KHTML, like Gecko) Chrome/91.0.4472.114 Safari/537.36",Macintosh,Chrome,91.0.4472.114,"OS X",10_15_7
13,1,"""",943.6999998092651,survey-likert,17,1795768,0.0-17.0,"{""X"":"",""Y"":"",""Z"":""}","[0,1,2]","2021-07-12 15:13:12",64.137.131.82,"Mozilla/5.0 (Macintosh; Intel Mac OS X 10_15_7) AppleWebKit/537.36 (KHTML, like Gecko) Chrome/91.0.4472.114 Safari/537.36",Macintosh,Chrome,91.0.4472.114,"OS X",10_15_7
13,1,"""",841,survey-text,18,1796611,0.0-18.0,"{""Q0"":""}","""","2021-07-12 15:13:12",64.137.131.82,"Mozilla/5.0 (Macintosh; Intel Mac OS X 10_15_7) AppleWebKit/537.36 (KHTML, like Gecko) Chrome/91.0.4472.114 Safari/537.36",Macintosh,Chrome,91.0.4472.114,"OS X",10_15_7
13,1,"""",1213.8999998569489,survey-likert,19,1797827,0.0-19.0,"{""X"":"",""Y"":"",""Z"":""}","[0,1,2]","2021-07-12 15:13:12",64.137.131.82,"Mozilla/5.0 (Macintosh; Intel Mac OS X 10_15_7) AppleWebKit/537.36 (KHTML, like Gecko) Chrome/91.0.4472.114 Safari/537.36",Macintosh,Chrome,91.0.4472.114,"OS X",10_15_7
13,1,"""",2640.4000000953674,survey-text,20,1800471,0.0-20.0,"{""Q0"":""}","""","2021-07-12 15:13:12",64.137.131.82,"Mozilla/5.0 (Macintosh; Intel Mac OS X 10_15_7) AppleWebKit/537.36 (KHTML, like Gecko) Chrome/91.0.4472.114 Safari/537.36",Macintosh,Chrome,91.0.4472.114,"OS X",10_15_7
13,1,"""",1504.5999999046326,survey-likert,21,1801978,0.0-21.0,"{""X"":"",""Y"":"",""Z"":""}","[0,1,2]","2021-07-12 15:13:12",64.137.131.82,"Mozilla/5.0 (Macintosh; Intel Mac OS X 10_15_7) AppleWebKit/537.36 (KHTML, like Gecko) Chrome/91.0.4472.114 Safari/537.36",Macintosh,Chrome,91.0.4472.114,"OS X",10_15_7
13,1,"""",786.2999999523163,survey-text,22,1802767,0.0-22.0,"{""Q0"":""}","""","2021-07-12 15:13:12",64.137.131.82,"Mozilla/5.0 (Macintosh; Intel Mac OS X 10_15_7) AppleWebKit/537.36 (KHTML, like Gecko) Chrome/91.0.4472.114 Safari/537.36",Macintosh,Chrome,91.0.4472.114,"OS X",10_15_7
13,1,"""",986.7999999523163,survey-likert,23,1803756,0.0-23.0,"{""X"":"",""Y"":"",""Z"":""}","[0,1,2]","2021-07-12 15:13:12",64.137.131.82,"Mozilla/5.0 (Macintosh; Intel Mac OS X 10_15_7) AppleWebKit/537.36 (KHTML, like Gecko) Chrome/91.0.4472.114 Safari/537.36",Macintosh,Chrome,91.0.4472.114,"OS X",10_15_7
13,1,"""",749.2999999523163,survey-text,24,1804509,0.0-24.0,"{""Q0"":""}","""","2021-07-12 15:13:12",64.137.131.82,"Mozilla/5.0 (Macintosh; Intel Mac OS X 10_15_7) AppleWebKit/537.36 (KHTML, like Gecko) Chrome/91.0.4472.114 Safari/537.36",Macintosh,Chrome,91.0.4472.114,"OS X",10_15_7
13,1,"""",774.7000000476837,survey-likert,25,1805286,0.0-25.0,"{""X"":"",""Y"":"",""Z"":""}","[0,1,2]","2021-07-12 15:13:12",64.137.131.82,"Mozilla/5.0 (Macintosh; Intel Mac OS X 10_15_7) AppleWebKit/537.36 (KHTML, like Gecko) Chrome/91.0.4472.114 Safari/537.36",Macintosh,Chrome,91.0.4472.114,"OS X",10_15_7
13,1,"""",1618.5,survey-text,26,1806906,0.0-26.0,"{""Q0"":""}","""","2021-07-12 15:13:12",64.137.131.82,"Mozilla/5.0 (Macintosh; Intel Mac OS X 10_15_7) AppleWebKit/537.36 (KHTML, like Gecko) Chrome/91.0.4472.114 Safari/537.36",Macintosh,Chrome,91.0.4472.114,"OS X",10_15_7
13,1,"""",1505.7000000476837,survey-likert,27,1808414,0.0-27.0,"{""X"":"",""Y"":"",""Z"":""}","[0,1,2]","2021-07-12 15:13:12",64.137.131.82,"Mozilla/5.0 (Macintosh; Intel Mac OS X 10_15_7) AppleWebKit/537.36 (KHTML, like Gecko) Chrome/91.0.4472.114 Safari/537.36",Macintosh,Chrome,91.0.4472.114,"OS X",10_15_7
13,1,"""",931.2000000476837,survey-text,28,1809347,0.0-28.0,"{""Q0"":""}","""","2021-07-12 15:13:12",64.137.131.82,"Mozilla/5.0 (Macintosh; Intel Mac OS X 10_15_7) AppleWebKit/537.36 (KHTML, like Gecko) Chrome/91.0.4472.114 Safari/537.36",Macintosh,Chrome,91.0.4472.114,"OS X",10_15_7
13,1,"""",15950.300000190735,survey-likert,29,1825300,0.0-29.0,"{""X"":0,""Y"":0,""Z"":0}","[0,1,2]","2021-07-12 15:13:12",64.137.131.82,"Mozilla/5.0 (Macintosh; Intel Mac OS X 10_15_7) AppleWebKit/537.36 (KHTML, like Gecko) Chrome/91.0.4472.114 Safari/537.36",Macintosh,Chrome,91.0.4472.114,"OS X",10_15_7
13,1,"[{""page_index"":0,""viewing_time"":8089.299999952316}]",8089.699999809265,instructions,30,1833391,0.0-30.0,"""","""","2021-07-12 15:13:12",64.137.131.82,"Mozilla/5.0 (Macintosh; Intel Mac OS X 10_15_7) AppleWebKit/537.36 (KHTML, like Gecko) Chrome/91.0.4472.114 Safari/537.36",Macintosh,Chrome,91.0.4472.114,"OS X",10_15_7
13,1,"[{""page_index"":0,""viewing_time"":24194.099999904633}]",24194.5,instructions,31,1857587,0.0-31.0,"""","""","2021-07-12 15:13:12",64.137.131.82,"Mozilla/5.0 (Macintosh; Intel Mac OS X 10_15_7) AppleWebKit/537.36 (KHTML, like Gecko) Chrome/91.0.4472.114 Safari/537.36",Macintosh,Chrome,91.0.4472.114,"OS X",10_15_7
13,1,"""",611892.7000000477,survey-multi-select,32,2469485,0.0-32.0,"{""Colors"":[""Collegiate private lessons (in music performance)"",""Music courses for collegiate music majors not listed here"",""General education music courses for collegiate students""]}",[0],"2021-07-12 15:13:12",64.137.131.82,"Mozilla/5.0 (Macintosh; Intel Mac OS X 10_15_7) AppleWebKit/537.36 (KHTML, like Gecko) Chrome/91.0.4472.114 Safari/537.36",Macintosh,Chrome,91.0.4472.114,"OS X",10_15_7
13,1,"""",37301.90000009537,survey-text,33,2506791,0.0-33.0,"{""Q0"":""}","""","2021-07-12 15:13:12",64.137.131.82,"Mozilla/5.0 (Macintosh; Intel Mac OS X 10_15_7) AppleWebKit/537.36 (KHTML, like Gecko) Chrome/91.0.4472.114 Safari/537.36",Macintosh,Chrome,91.0.4472.114,"OS X",10_15_7
13,1,"""",92299.89999985695,survey-multi-select,34,2599098,0.0-34.0,"{""Colors"":[""HS diploma"",""Ph.D. in Music Theory/Musicology""]}",[0],"2021-07-12 15:13:12",64.137.131.82,"Mozilla/5.0 (Macintosh; Intel Mac OS X 10_15_7) AppleWebKit/537.36 (KHTML, like Gecko) Chrome/91.0.4472.114 Safari/537.36",Macintosh,Chrome,91.0.4472.114,"OS X",10_15_7
13,1,"""",121701.40000009537,survey-text,35,2720803,0.0-35.0,"{""Q0"":""}","""","2021-07-12 15:13:12",64.137.131.82,"Mozilla/5.0 (Macintosh; Intel Mac OS X 10_15_7) AppleWebKit/537.36 (KHTML, like Gecko) Chrome/91.0.4472.114 Safari/537.36",Macintosh,Chrome,91.0.4472.114,"OS X",10_15_7
13,1,"""",57075.5,survey-multi-select,36,2777887,0.0-36.0,"{""Colors"":[""Public institution""]}",[0],"2021-07-12 15:13:12",64.137.131.82,"Mozilla/5.0 (Macintosh; Intel Mac OS X 10_15_7) AppleWebKit/537.36 (KHTML, like Gecko) Chrome/91.0.4472.114 Safari/537.36",Macintosh,Chrome,91.0.4472.114,"OS X",10_15_7
13,1,"""",56188.40000009537,survey-multi-select,37,2834081,0.0-37.0,"{""Colors"":[""K-12 School Teacher""]}",[0],"2021-07-12 15:13:12",64.137.131.82,"Mozilla/5.0 (Macintosh; Intel Mac OS X 10_15_7) AppleWebKit/537.36 (KHTML, like Gecko) Chrome/91.0.4472.114 Safari/537.36",Macintosh,Chrome,91.0.4472.114,"OS X",10_15_7
13,1,"[{""page_index"":0,""viewing_time"":29260.300000190735}]",29261.10000014305,instructions,38,2863342,0.0-38.0,"""","""","2021-07-12 15:13:12",64.137.131.82,"Mozilla/5.0 (Macintosh; Intel Mac OS X 10_15_7) AppleWebKit/537.36 (KHTML, like Gecko) Chrome/91.0.4472.114 Safari/537.36",Macintosh,Chrome,91.0.4472.114,"OS X",10_15_7
13,1,"""",7128.799999952316,survey-text,39,2870475,0.0-39.0,"{""Q0"":""}","""","2021-07-12 15:13:12",64.137.131.82,"Mozilla/5.0 (Macintosh; Intel Mac OS X 10_15_7) AppleWebKit/537.36 (KHTML, like Gecko) Chrome/91.0.4472.114 Safari/537.36",Macintosh,Chrome,91.0.4472.114,"OS X",10_15_7
13,1,"""",108086.39999985695,survey-multi-select,40,2978577,0.0-40.0,"{""Colors"":[""Scale-degree numbers with inflections (e.g. An F# in the key of C is sung as Fi)""]}",[0],"2021-07-12 15:13:12",64.137.131.82,"Mozilla/5.0 (Macintosh; Intel Mac OS X 10_15_7) AppleWebKit/537.36 (KHTML, like Gecko) Chrome/91.0.4472.114 Safari/537.36",Macintosh,Chrome,91.0.4472.114,"OS X",10_15_7
13,1,"""",38373.59999990463,survey-multi-select,41,3016964,0.0-41.0,"{""Colors"":[""Scale-degree numbers with inflections""]}",[0],"2021-07-12 15:13:12",64.137.131.82,"Mozilla/5.0 (Macintosh; Intel Mac OS X 10_15_7) AppleWebKit/537.36 (KHTML, like Gecko) Chrome/91.0.4472.114 Safari/537.36",Macintosh,Chrome,91.0.4472.114,"OS X",10_15_7
13,1,"""",6725.799999952316,survey-multi-select,42,3023703,0.0-42.0,"{""Colors"":[""Scale-degree numbers with inflections""]}",[0],"2021-07-12 15:13:12",64.137.131.82,"Mozilla/5.0 (Macintosh; Intel Mac OS X 10_15_7) AppleWebKit/537.36 (KHTML, like Gecko) Chrome/91.0.4472.114 Safari/537.36",Macintosh,Chrome,91.0.4472.114,"OS X",10_15_7
13,1,"""",83922.20000004768,survey-text,43,3107628,0.0-43.0,"{""Q0"":""}","""","2021-07-12 15:13:12",64.137.131.82,"Mozilla/5.0 (Macintosh; Intel Mac OS X 10_15_7) AppleWebKit/537.36 (KHTML, like Gecko) Chrome/91.0.4472.114 Safari/537.36",Macintosh,Chrome,91.0.4472.114,"OS X",10_15_7
13,1,"""",176098.90000009537,survey-likert,44,3283728,0.0-44.0,"{""often"":"",""rp"":""}","[0,1]","2021-07-12 15:13:12",64.137.131.82,"Mozilla/5.0 (Macintosh; Intel Mac OS X 10_15_7) AppleWebKit/537.36 (KHTML, like Gecko) Chrome/91.0.4472.114 Safari/537.36",Macintosh,Chrome,91.0.4472.114,"OS X",10_15_7
13,1,"""",163035.10000014305,survey-multi-choice,45,3446766,0.0-45.0,"{""Vegetables"":""Yes"",""Fruit"":""Yes"",""Fruitz"":""Yes""}","[0,1,2]","2021-07-12 15:13:12",64.137.131.82,"Mozilla/5.0 (Macintosh; Intel Mac OS X 10_15_7) AppleWebKit/537.36 (KHTML, like Gecko) Chrome/91.0.4472.114 Safari/537.36",Macintosh,Chrome,91.0.4472.114,"OS X",10_15_7
13,1,"""",28197,survey-multi-select,46,3474969,0.0-46.0,"{""Colors"":[""Private college or university""]}",[0],"2021-07-12 15:13:12",64.137.131.82,"Mozilla/5.0 (Macintosh; Intel Mac OS X 10_15_7) AppleWebKit/537.36 (KHTML, like Gecko) Chrome/91.0.4472.114 Safari/537.36",Macintosh,Chrome,91.0.4472.114,"OS X",10_15_7
13,1,"""",69647.40000009537,survey-text,47,3544620,0.0-47.0,"{""Q0"":""}","""","2021-07-12 15:13:12",64.137.131.82,"Mozilla/5.0 (Macintosh; Intel Mac OS X 10_15_7) AppleWebKit/537.36 (KHTML, like Gecko) Chrome/91.0.4472.114 Safari/537.36",Macintosh,Chrome,91.0.4472.114,"OS X",10_15_7
13,1,"""",66026,survey-multi-select,48,3610658,0.0-48.0,"{""Colors"":[""Doctorate (Ph.D.)""]}",[0],"2021-07-12 15:13:12",64.137.131.82,"Mozilla/5.0 (Macintosh; Intel Mac OS X 10_15_7) AppleWebKit/537.36 (KHTML, like Gecko) Chrome/91.0.4472.114 Safari/537.36",Macintosh,Chrome,91.0.4472.114,"OS X",10_15_7
13,1,"""",9524.300000190735,survey-multi-select,49,3620187,0.0-49.0,"{""Colors"":[""Graduate student (teaching assistants)""]}",[0],"2021-07-12 15:13:12",64.137.131.82,"Mozilla/5.0 (Macintosh; Intel Mac OS X 10_15_7) AppleWebKit/537.36 (KHTML, like Gecko) Chrome/91.0.4472.114 Safari/537.36",Macintosh,Chrome,91.0.4472.114,"OS X",10_15_7
13,1,"""",127370.5,survey-multi-select,50,3747562,0.0-50.0,"{""Colors"":[""Undergraduate degree in performance"",""Undergraduate degree in music theory or composition""]}",[0],"2021-07-12 15:13:12",64.137.131.82,"Mozilla/5.0 (Macintosh; Intel Mac OS X 10_15_7) AppleWebKit/537.36 (KHTML, like Gecko) Chrome/91.0.4472.114 Safari/537.36",Macintosh,Chrome,91.0.4472.114,"OS X",10_15_7
13,1,"""",71884.89999985695,survey-text,51,3819450,0.0-51.0,"{""Q0"":""}","""","2021-07-12 15:13:12",64.137.131.82,"Mozilla/5.0 (Macintosh; Intel Mac OS X 10_15_7) AppleWebKit/537.36 (KHTML, like Gecko) Chrome/91.0.4472.114 Safari/537.36",Macintosh,Chrome,91.0.4472.114,"OS X",10_15_7
13,1,"""",1257.0999999046326,survey-text,52,3820710,0.0-52.0,"{""Q0"":""}","""","2021-07-12 15:13:12",64.137.131.82,"Mozilla/5.0 (Macintosh; Intel Mac OS X 10_15_7) AppleWebKit/537.36 (KHTML, like Gecko) Chrome/91.0.4472.114 Safari/537.36",Macintosh,Chrome,91.0.4472.114,"OS X",10_15_7
13,1,"""",44130.799999952316,survey-text,53,3864844,0.0-53.0,"{""Q0"":""}","""","2021-07-12 15:13:12",64.137.131.82,"Mozilla/5.0 (Macintosh; Intel Mac OS X 10_15_7) AppleWebKit/537.36 (KHTML, like Gecko) Chrome/91.0.4472.114 Safari/537.36",Macintosh,Chrome,91.0.4472.114,"OS X",10_15_7
13,1,"""",18819.799999952316,survey-text,54,3883666,0.0-54.0,"{""Q0"":""}","""","2021-07-12 15:13:12",64.137.131.82,"Mozilla/5.0 (Macintosh; Intel Mac OS X 10_15_7) AppleWebKit/537.36 (KHTML, like Gecko) Chrome/91.0.4472.114 Safari/537.36",Macintosh,Chrome,91.0.4472.114,"OS X",10_15_7
13,1,"[{""page_index"":0,""viewing_time"":9911}]",9912.299999952316,instructions,55,3893580,0.0-55.0,"""","""","2021-07-12 15:13:12",64.137.131.82,"Mozilla/5.0 (Macintosh; Intel Mac OS X 10_15_7) AppleWebKit/537.36 (KHTML, like Gecko) Chrome/91.0.4472.114 Safari/537.36",Macintosh,Chrome,91.0.4472.114,"OS X",10_15_7
