run_id,condition,view_history,rt,trial_type,trial_index,time_elapsed,internal_node_id,recorded_at,ip,user_agent,device,browser,browser_version,platform,platform_version,source_code_version,response,question_order,stimulus,slider_start,fbclid
1,1,"[{""page_index"":0,""viewing_time"":3609.5},{""page_index"":1,""viewing_time"":1141},{""page_index"":2,""viewing_time"":1284.2000000476837}]",6036,instructions,0,6046,0.0-0.0,2021-10-22 16:51:39,176.26.232.213,"Mozilla/5.0 (Macintosh; Intel Mac OS X 10_15_7) AppleWebKit/537.36 (KHTML, like Gecko) Chrome/94.0.4606.81 Safari/537.36",Macintosh,Chrome,94.0.4606.81,OS X,10_15_7,8f8fbc6ef03fcbbd2622e55cc1f13f7b
100,1,"[{""page_index"":0,""viewing_time"":14897.80000000447},{""page_index"":1,""viewing_time"":1617.8999999985099},{""page_index"":2,""viewing_time"":946.3999999985099}]",17469.80000000447,instructions,0,17909,0.0-0.0,2021-11-27 18:12:43,176.26.232.213,"Mozilla/5.0 (Linux; Android 12; Pixel 3a) AppleWebKit/537.36 (KHTML, like Gecko) Chrome/96.0.4664.45 Mobile Safari/537.36",Pixel,Chrome,96.0.4664.45,AndroidOS,12,447d70a80c75dce987d9c5508038710f,"""",""""
100,1,"[{""page_index"":0,""viewing_time"":965.2000000029802}]",966.1000000014901,instructions,1,18897,0.0-1.0,2021-11-27 18:12:43,176.26.232.213,"Mozilla/5.0 (Linux; Android 12; Pixel 3a) AppleWebKit/537.36 (KHTML, like Gecko) Chrome/96.0.4664.45 Mobile Safari/537.36",Pixel,Chrome,96.0.4664.45,AndroidOS,12,447d70a80c75dce987d9c5508038710f,"""",""""
100,1,"""",44798.70000000298,survey-likert,2,63735,0.0-2.0,2021-11-27 18:12:43,176.26.232.213,"Mozilla/5.0 (Linux; Android 12; Pixel 3a) AppleWebKit/537.36 (KHTML, like Gecko) Chrome/96.0.4664.45 Mobile Safari/537.36",Pixel,Chrome,96.0.4664.45,AndroidOS,12,447d70a80c75dce987d9c5508038710f,"{""rp_produce_abref_11"":7,""ap_id_interval_18"":7,""ap_name_abref_25"":7,""rp_produce_interval_05"":7,""rp_id_interval_04"":7,""rp_lose_13"":7,""ap_name_relation_20"":7,""ap_remember_group_27"":6,""ap_perceive_same_21"":7,""rp_remember_group_12"":6,""ap_produce_interval_19"":7,""rp_to_ap_14"":6,""rp_id_44_08"":7,""ap_to_rp_22"":6,""ap_lose_28"":6,""rp_perceive_same_07"":6,""rp_name_relation_06"":7,""ap_produce_abref_26"":6,""ap_ref_tonal_03"":6,""ap_produce_tonality_17"":7,""ap_produce_440_24"":7,""rp_name_abref_10"":7,""rp_ref_tonal_01"":7,""rp_produce_tonality_02"":7,""rp_produce_440_09"":7,""ap_id_440_23"":7,""ap_ref_tonal_16"":7,""ap_ref_tonal_15"":7}","[10,17,24,4,3,12,19,26,20,11,18,13,7,21,27,6,5,25,2,16,23,9,0,1,8,22,15,14]"
100,1,"""",13040.5,survey-text,3,76802,0.0-3.0,2021-11-27 18:12:43,176.26.232.213,"Mozilla/5.0 (Linux; Android 12; Pixel 3a) AppleWebKit/537.36 (KHTML, like Gecko) Chrome/96.0.4664.45 Mobile Safari/537.36",Pixel,Chrome,96.0.4664.45,AndroidOS,12,447d70a80c75dce987d9c5508038710f,"{""Q0"":""Poooop\n""}",""""
100,1,"""",21766.40000000596,survey-text,4,98575,0.0-4.0,2021-11-27 18:12:43,176.26.232.213,"Mozilla/5.0 (Linux; Android 12; Pixel 3a) AppleWebKit/537.36 (KHTML, like Gecko) Chrome/96.0.4664.45 Mobile Safari/537.36",Pixel,Chrome,96.0.4664.45,AndroidOS,12,447d70a80c75dce987d9c5508038710f,"{""Q0"":""Ppooooooop""}",""""
1037,1,"[{""page_index"":0,""viewing_time"":4321.5},{""page_index"":1,""viewing_time"":10111},{""page_index"":2,""viewing_time"":2239.8000000715256}]",16673.700000047684,instructions,0,16705,0.0-0.0,2021-12-02 16:42:52,173.75.43.62,"Mozilla/5.0 (Macintosh; Intel Mac OS X 10_15_7) AppleWebKit/537.36 (KHTML, like Gecko) Chrome/96.0.4664.55 Safari/537.36",Macintosh,Chrome,96.0.4664.55,OS X,10_15_7,447d70a80c75dce987d9c5508038710f,"""","""","""",""""
1037,1,"[{""page_index"":0,""viewing_time"":1354.1999999284744}]",1354.6000000238419,instructions,1,18064,0.0-1.0,2021-12-02 16:42:52,173.75.43.62,"Mozilla/5.0 (Macintosh; Intel Mac OS X 10_15_7) AppleWebKit/537.36 (KHTML, like Gecko) Chrome/96.0.4664.55 Safari/537.36",Macintosh,Chrome,96.0.4664.55,OS X,10_15_7,447d70a80c75dce987d9c5508038710f,"""","""","""",""""
1037,1,"""",238308.69999992847,survey-likert,2,256389,0.0-2.0,2021-12-02 16:42:52,173.75.43.62,"Mozilla/5.0 (Macintosh; Intel Mac OS X 10_15_7) AppleWebKit/537.36 (KHTML, like Gecko) Chrome/96.0.4664.55 Safari/537.36",Macintosh,Chrome,96.0.4664.55,OS X,10_15_7,447d70a80c75dce987d9c5508038710f,"{""ap_produce_440_24"":4,""ap_lose_28"":7,""rp_lose_13"":5,""rp_to_ap_14"":0,""ap_to_rp_22"":0,""rp_name_abref_10"":0,""ap_id_interval_18"":0,""rp_ref_tonal_01"":4,""rp_produce_abref_11"":0,""ap_name_abref_25"":6,""rp_perceive_same_07"":4,""ap_produce_interval_19"":0,""ap_ref_tonal_16"":4,""rp_name_relation_06"":6,""ap_name_relation_20"":0,""rp_produce_tonality_02"":4,""rp_id_44_08"":0,""rp_id_interval_04"":5,""ap_produce_tonality_17"":0,""rp_produce_interval_05"":4,""ap_produce_abref_26"":5,""rp_produce_440_09"":1,""rp_remember_group_12"":1,""ap_id_440_23"":5,""ap_ref_tonal_15"":0,""ap_ref_tonal_03"":2,""ap_perceive_same_21"":0,""ap_remember_group_27"":4}","[23,27,12,13,21,9,17,0,10,24,6,18,15,5,19,1,7,3,16,4,25,8,11,22,14,2,20,26]","""",""""
1037,1,"""",94040.5,survey-text,3,350455,0.0-3.0,2021-12-02 16:42:52,173.75.43.62,"Mozilla/5.0 (Macintosh; Intel Mac OS X 10_15_7) AppleWebKit/537.36 (KHTML, like Gecko) Chrome/96.0.4664.55 Safari/537.36",Macintosh,Chrome,96.0.4664.55,OS X,10_15_7,447d70a80c75dce987d9c5508038710f,"{""Q0"":""Relative pitch is the ability to identify intervals, scale degrees, etc. once given a reference tone. Unlike absolute pitch, it can be learned (I've seen people experiment with trying to memorize a reference tone like A440 but I haven't seen it work).""}","""","""",""""
1037,1,"""",14637.399999976158,survey-text,4,365095,0.0-4.0,2021-12-02 16:42:52,173.75.43.62,"Mozilla/5.0 (Macintosh; Intel Mac OS X 10_15_7) AppleWebKit/537.36 (KHTML, like Gecko) Chrome/96.0.4664.55 Safari/537.36",Macintosh,Chrome,96.0.4664.55,OS X,10_15_7,447d70a80c75dce987d9c5508038710f,"{""Q0"":""Absolute pitch is the ability to identify a pitch when heard.""}","""","""",""""
1037,1,"[{""page_index"":0,""viewing_time"":1902.2000000476837}]",1902.7000000476837,instructions,5,367000,0.0-5.0,2021-12-02 16:42:52,173.75.43.62,"Mozilla/5.0 (Macintosh; Intel Mac OS X 10_15_7) AppleWebKit/537.36 (KHTML, like Gecko) Chrome/96.0.4664.55 Safari/537.36",Macintosh,Chrome,96.0.4664.55,OS X,10_15_7,447d70a80c75dce987d9c5508038710f,"""","""","""",""""
1037,1,"""",104591.80000007153,survey-likert,6,471643,0.0-6.0,2021-12-02 16:42:52,173.75.43.62,"Mozilla/5.0 (Macintosh; Intel Mac OS X 10_15_7) AppleWebKit/537.36 (KHTML, like Gecko) Chrome/96.0.4664.55 Safari/537.36",Macintosh,Chrome,96.0.4664.55,OS X,10_15_7,447d70a80c75dce987d9c5508038710f,"{""rp_normal_6"":3,""rp_tonedeaf_5"":6,""ap_override_10"":5,""ap_tonedeaf_12"":0,""re_people_al_1"":1,""rp_better_others_7"":6,""ap_people_all_8"":0,""ap_trained_ap_11"":0,""ap_normal_13"":0,""rp_trained_ap_4"":0,""ap_impaired_9"":6,""rp_impaired_2"":3,""ap_better_others_14"":6,""rp_override_3"":4}","[5,4,9,11,0,6,7,10,12,3,8,1,13,2]","""",""""
1037,1,"[{""page_index"":0,""viewing_time"":3259.9000000953674}]",3260.7000000476837,instructions,7,474909,0.0-7.0,2021-12-02 16:42:52,173.75.43.62,"Mozilla/5.0 (Macintosh; Intel Mac OS X 10_15_7) AppleWebKit/537.36 (KHTML, like Gecko) Chrome/96.0.4664.55 Safari/537.36",Macintosh,Chrome,96.0.4664.55,OS X,10_15_7,447d70a80c75dce987d9c5508038710f,"""","""","""",""""
1037,1,"[{""page_index"":0,""viewing_time"":1990.5}]",1991.3000000715256,instructions,8,476902,0.0-8.0,2021-12-02 16:42:52,173.75.43.62,"Mozilla/5.0 (Macintosh; Intel Mac OS X 10_15_7) AppleWebKit/537.36 (KHTML, like Gecko) Chrome/96.0.4664.55 Safari/537.36",Macintosh,Chrome,96.0.4664.55,OS X,10_15_7,447d70a80c75dce987d9c5508038710f,"""","""","""",""""
1037,1,"""",15564.299999952316,html-slider-response,9,492471,0.0-9.0,2021-12-02 16:42:52,173.75.43.62,"Mozilla/5.0 (Macintosh; Intel Mac OS X 10_15_7) AppleWebKit/537.36 (KHTML, like Gecko) Chrome/96.0.4664.55 Safari/537.36",Macintosh,Chrome,96.0.4664.55,OS X,10_15_7,447d70a80c75dce987d9c5508038710f,30,"""",<p></p>,50
1037,1,"""",4357.100000023842,html-slider-response,10,496830,0.0-10.0,2021-12-02 16:42:52,173.75.43.62,"Mozilla/5.0 (Macintosh; Intel Mac OS X 10_15_7) AppleWebKit/537.36 (KHTML, like Gecko) Chrome/96.0.4664.55 Safari/537.36",Macintosh,Chrome,96.0.4664.55,OS X,10_15_7,447d70a80c75dce987d9c5508038710f,0,"""",<p></p>,50
103,1,"[{""page_index"":0,""viewing_time"":39738.20000000298},{""page_index"":1,""viewing_time"":18431.5},{""page_index"":2,""viewing_time"":3031.2999999970198}]",61202.90000000596,instructions,0,61216,0.0-0.0,2021-11-27 18:18:33,104.152.97.73,"Mozilla/5.0 (Macintosh; Intel Mac OS X 10_15_7) AppleWebKit/537.36 (KHTML, like Gecko) Chrome/95.0.4638.69 Safari/537.36",Macintosh,Chrome,95.0.4638.69,OS X,10_15_7,447d70a80c75dce987d9c5508038710f,,,,,IwAR27tsA44VlQCDgWFj6F_K7WzleawBA5fNecK13UV4mjy55E5n6xVqO1ufs
1028,1,"[{""page_index"":0,""viewing_time"":13513.899999856949},{""page_index"":1,""viewing_time"":3825},{""page_index"":2,""viewing_time"":1834.1000001430511}]",19173.599999904633,instructions,0,19190,0.0-0.0,2021-12-02 15:55:37,73.51.83.142,"Mozilla/5.0 (Macintosh; Intel Mac OS X 10_15_7) AppleWebKit/537.36 (KHTML, like Gecko) Chrome/95.0.4638.69 Safari/537.36",Macintosh,Chrome,95.0.4638.69,OS X,10_15_7,447d70a80c75dce987d9c5508038710f,,,,,
1052,1,"[{""page_index"":0,""viewing_time"":128665},{""page_index"":1,""viewing_time"":16621},{""page_index"":2,""viewing_time"":4494}]",149782,instructions,0,149793,0.0-0.0,2021-12-02 17:58:44,160.72.231.4,"Mozilla/5.0 (Macintosh; Intel Mac OS X 10_15_5) AppleWebKit/605.1.15 (KHTML, like Gecko) Version/13.1.1 Safari/605.1.15",Macintosh,Safari,13.1.1,OS X,10_15_5,447d70a80c75dce987d9c5508038710f,,,,,
1111,1,"[{""page_index"":0,""viewing_time"":13753.099999904633},{""page_index"":1,""viewing_time"":2590.5999999046326},{""page_index"":2,""viewing_time"":4423.5}]",20769.599999904633,instructions,0,20972,0.0-0.0,2021-12-04 05:45:28,98.230.41.36,"Mozilla/5.0 (Linux; Android 9; SM-G950U) AppleWebKit/537.36 (KHTML, like Gecko) Chrome/94.0.4606.85 Mobile Safari/537.36",WebKit,Chrome,94.0.4606.85,AndroidOS,9,447d70a80c75dce987d9c5508038710f,,,,,
1149,1,"[{""page_index"":0,""viewing_time"":13203},{""page_index"":1,""viewing_time"":5242},{""page_index"":2,""viewing_time"":2887}]",21333,instructions,0,21338,0.0-0.0,2021-12-07 02:32:25,119.236.48.71,Mozilla/5.0 (Macintosh; Intel Mac OS X 10.15; rv:94.0) Gecko/20100101 Firefox/94.0,Macintosh,Firefox,94.0,OS X,10.15,447d70a80c75dce987d9c5508038710f,"""","""",,,
1149,1,"[{""page_index"":0,""viewing_time"":2217}]",2217,instructions,1,23558,0.0-1.0,2021-12-07 02:32:25,119.236.48.71,Mozilla/5.0 (Macintosh; Intel Mac OS X 10.15; rv:94.0) Gecko/20100101 Firefox/94.0,Macintosh,Firefox,94.0,OS X,10.15,447d70a80c75dce987d9c5508038710f,"""","""",,,
1149,1,"""",859592,survey-likert,2,883163,0.0-2.0,2021-12-07 02:32:25,119.236.48.71,Mozilla/5.0 (Macintosh; Intel Mac OS X 10.15; rv:94.0) Gecko/20100101 Firefox/94.0,Macintosh,Firefox,94.0,OS X,10.15,447d70a80c75dce987d9c5508038710f,"{""rp_name_abref_10"":0,""ap_produce_abref_26"":6,""ap_produce_440_24"":5,""ap_id_440_23"":5,""rp_produce_interval_05"":5,""rp_produce_440_09"":0,""ap_lose_28"":6,""ap_ref_tonal_03"":0,""rp_remember_group_12"":1,""rp_to_ap_14"":0,""ap_produce_interval_19"":1,""ap_remember_group_27"":3,""rp_name_relation_06"":0,""ap_ref_tonal_15"":0,""rp_id_44_08"":1,""rp_id_interval_04"":6,""ap_name_relation_20"":6,""rp_perceive_same_07"":6,""ap_ref_tonal_16"":6,""rp_lose_13"":6,""ap_id_interval_18"":0,""rp_produce_abref_11"":0,""ap_to_rp_22"":4,""ap_perceive_same_21"":0,""ap_produce_tonality_17"":0,""rp_produce_tonality_02"":6,""ap_name_abref_25"":6,""rp_ref_tonal_01"":6}","[9,25,23,22,4,8,27,2,11,13,18,26,5,14,7,3,19,6,15,12,17,10,21,20,16,1,24,0]",,,
1149,1,"""",16998,survey-text,3,900169,0.0-3.0,2021-12-07 02:32:25,119.236.48.71,Mozilla/5.0 (Macintosh; Intel Mac OS X 10.15; rv:94.0) Gecko/20100101 Firefox/94.0,Macintosh,Firefox,94.0,OS X,10.15,447d70a80c75dce987d9c5508038710f,"{""Q0"":""Not applicable""}","""",,,
1149,1,"""",6836,survey-text,4,907009,0.0-4.0,2021-12-07 02:32:25,119.236.48.71,Mozilla/5.0 (Macintosh; Intel Mac OS X 10.15; rv:94.0) Gecko/20100101 Firefox/94.0,Macintosh,Firefox,94.0,OS X,10.15,447d70a80c75dce987d9c5508038710f,"{""Q0"":""Not applicable""}","""",,,
1149,1,"[{""page_index"":0,""viewing_time"":1932}]",1932,instructions,5,908943,0.0-5.0,2021-12-07 02:32:25,119.236.48.71,Mozilla/5.0 (Macintosh; Intel Mac OS X 10.15; rv:94.0) Gecko/20100101 Firefox/94.0,Macintosh,Firefox,94.0,OS X,10.15,447d70a80c75dce987d9c5508038710f,"""","""",,,
1149,1,"""",80645,survey-likert,6,989593,0.0-6.0,2021-12-07 02:32:25,119.236.48.71,Mozilla/5.0 (Macintosh; Intel Mac OS X 10.15; rv:94.0) Gecko/20100101 Firefox/94.0,Macintosh,Firefox,94.0,OS X,10.15,447d70a80c75dce987d9c5508038710f,"{""ap_impaired_9"":6,""rp_better_others_7"":6,""ap_people_all_8"":0,""ap_tonedeaf_12"":0,""ap_trained_ap_11"":0,""rp_impaired_2"":0,""re_people_al_1"":4,""rp_override_3"":6,""rp_normal_6"":1,""ap_override_10"":6,""ap_normal_13"":0,""ap_better_others_14"":6,""rp_tonedeaf_5"":1,""rp_trained_ap_4"":5}","[8,6,7,11,10,1,0,2,5,9,12,13,4,3]",,,
1149,1,"[{""page_index"":0,""viewing_time"":3654}]",3654,instructions,7,993250,0.0-7.0,2021-12-07 02:32:25,119.236.48.71,Mozilla/5.0 (Macintosh; Intel Mac OS X 10.15; rv:94.0) Gecko/20100101 Firefox/94.0,Macintosh,Firefox,94.0,OS X,10.15,447d70a80c75dce987d9c5508038710f,"""","""",,,
1149,1,"[{""page_index"":0,""viewing_time"":2534}]",2535,instructions,8,995785,0.0-8.0,2021-12-07 02:32:25,119.236.48.71,Mozilla/5.0 (Macintosh; Intel Mac OS X 10.15; rv:94.0) Gecko/20100101 Firefox/94.0,Macintosh,Firefox,94.0,OS X,10.15,447d70a80c75dce987d9c5508038710f,"""","""",,,
1177,1,"[{""page_index"":0,""viewing_time"":12127},{""page_index"":1,""viewing_time"":5343.799999998882},{""page_index"":2,""viewing_time"":4472}]",21943.5,instructions,0,22080,0.0-0.0,2021-12-07 11:36:47,58.153.242.194,"Mozilla/5.0 (Macintosh; Intel Mac OS X 10_15_7) AppleWebKit/537.36 (KHTML, like Gecko) Chrome/96.0.4664.55 Safari/537.36",Macintosh,Chrome,96.0.4664.55,OS X,10_15_7,447d70a80c75dce987d9c5508038710f,,,,,
1174,1,"[{""page_index"":0,""viewing_time"":7458},{""page_index"":1,""viewing_time"":13134},{""page_index"":2,""viewing_time"":2659}]",23252,instructions,0,23259,0.0-0.0,2021-12-07 03:31:35,174.109.74.187,"Mozilla/5.0 (Macintosh; Intel Mac OS X 10_15_6) AppleWebKit/605.1.15 (KHTML, like Gecko) Version/15.1 Safari/605.1.15",Macintosh,Safari,15.1,OS X,10_15_6,447d70a80c75dce987d9c5508038710f,"""","""","""","""",IwAR1fp_jrSOxxxzRIsHrzKR0qPyV67i5jxg7HGIT4Vi0hyrMtjFvFx_H1gFM
1174,1,"[{""page_index"":0,""viewing_time"":2136.9999999999964}]",2137.9999999999964,instructions,1,25411,0.0-1.0,2021-12-07 03:31:35,174.109.74.187,"Mozilla/5.0 (Macintosh; Intel Mac OS X 10_15_6) AppleWebKit/605.1.15 (KHTML, like Gecko) Version/15.1 Safari/605.1.15",Macintosh,Safari,15.1,OS X,10_15_6,447d70a80c75dce987d9c5508038710f,"""","""","""","""",IwAR1fp_jrSOxxxzRIsHrzKR0qPyV67i5jxg7HGIT4Vi0hyrMtjFvFx_H1gFM
1174,1,"""",198359,survey-likert,2,223822,0.0-2.0,2021-12-07 03:31:35,174.109.74.187,"Mozilla/5.0 (Macintosh; Intel Mac OS X 10_15_6) AppleWebKit/605.1.15 (KHTML, like Gecko) Version/15.1 Safari/605.1.15",Macintosh,Safari,15.1,OS X,10_15_6,447d70a80c75dce987d9c5508038710f,"{""ap_name_abref_25"":6,""ap_to_rp_22"":0,""ap_ref_tonal_15"":0,""rp_remember_group_12"":3,""ap_ref_tonal_03"":0,""ap_perceive_same_21"":0,""rp_name_relation_06"":6,""ap_lose_28"":1,""rp_perceive_same_07"":6,""rp_id_44_08"":0,""ap_id_440_23"":6,""ap_ref_tonal_16"":6,""rp_lose_13"":0,""rp_produce_440_09"":0,""ap_produce_tonality_17"":0,""rp_produce_tonality_02"":6,""ap_remember_group_27"":3,""rp_ref_tonal_01"":6,""rp_id_interval_04"":6,""ap_produce_interval_19"":3,""rp_produce_abref_11"":0,""rp_produce_interval_05"":3,""rp_to_ap_14"":0,""rp_name_abref_10"":0,""ap_produce_440_24"":0,""ap_name_relation_20"":0,""ap_id_interval_18"":3,""ap_produce_abref_26"":6}","[24,21,14,11,2,20,5,27,6,7,22,15,12,8,16,1,26,0,3,18,10,4,13,9,23,19,17,25]","""","""",IwAR1fp_jrSOxxxzRIsHrzKR0qPyV67i5jxg7HGIT4Vi0hyrMtjFvFx_H1gFM
1174,1,"""",17668,survey-text,3,241496,0.0-3.0,2021-12-07 03:31:35,174.109.74.187,"Mozilla/5.0 (Macintosh; Intel Mac OS X 10_15_6) AppleWebKit/605.1.15 (KHTML, like Gecko) Version/15.1 Safari/605.1.15",Macintosh,Safari,15.1,OS X,10_15_6,447d70a80c75dce987d9c5508038710f,"{""Q0"":""N/A""}","""","""","""",IwAR1fp_jrSOxxxzRIsHrzKR0qPyV67i5jxg7HGIT4Vi0hyrMtjFvFx_H1gFM
1174,1,"""",18154,survey-text,4,259653,0.0-4.0,2021-12-07 03:31:35,174.109.74.187,"Mozilla/5.0 (Macintosh; Intel Mac OS X 10_15_6) AppleWebKit/605.1.15 (KHTML, like Gecko) Version/15.1 Safari/605.1.15",Macintosh,Safari,15.1,OS X,10_15_6,447d70a80c75dce987d9c5508038710f,"{""Q0"":""N/A""}","""","""","""",IwAR1fp_jrSOxxxzRIsHrzKR0qPyV67i5jxg7HGIT4Vi0hyrMtjFvFx_H1gFM
1174,1,"[{""page_index"":0,""viewing_time"":3063.000000000058}]",3063.000000000058,instructions,5,262721,0.0-5.0,2021-12-07 03:31:35,174.109.74.187,"Mozilla/5.0 (Macintosh; Intel Mac OS X 10_15_6) AppleWebKit/605.1.15 (KHTML, like Gecko) Version/15.1 Safari/605.1.15",Macintosh,Safari,15.1,OS X,10_15_6,447d70a80c75dce987d9c5508038710f,"""","""","""","""",IwAR1fp_jrSOxxxzRIsHrzKR0qPyV67i5jxg7HGIT4Vi0hyrMtjFvFx_H1gFM
1174,1,"""",110884.99999999994,survey-likert,6,373615,0.0-6.0,2021-12-07 03:31:35,174.109.74.187,"Mozilla/5.0 (Macintosh; Intel Mac OS X 10_15_6) AppleWebKit/605.1.15 (KHTML, like Gecko) Version/15.1 Safari/605.1.15",Macintosh,Safari,15.1,OS X,10_15_6,447d70a80c75dce987d9c5508038710f,"{""rp_tonedeaf_5"":1,""rp_normal_6"":1,""rp_override_3"":3,""ap_tonedeaf_12"":0,""ap_override_10"":3,""ap_people_all_8"":0,""rp_impaired_2"":1,""rp_better_others_7"":6,""ap_normal_13"":0,""ap_better_others_14"":6,""re_people_al_1"":5,""ap_trained_ap_11"":0,""ap_impaired_9"":3,""rp_trained_ap_4"":5}","[4,5,2,11,9,7,1,6,12,13,0,10,8,3]","""","""",IwAR1fp_jrSOxxxzRIsHrzKR0qPyV67i5jxg7HGIT4Vi0hyrMtjFvFx_H1gFM
1174,1,"[{""page_index"":0,""viewing_time"":3730}]",3730,instructions,7,377352,0.0-7.0,2021-12-07 03:31:35,174.109.74.187,"Mozilla/5.0 (Macintosh; Intel Mac OS X 10_15_6) AppleWebKit/605.1.15 (KHTML, like Gecko) Version/15.1 Safari/605.1.15",Macintosh,Safari,15.1,OS X,10_15_6,447d70a80c75dce987d9c5508038710f,"""","""","""","""",IwAR1fp_jrSOxxxzRIsHrzKR0qPyV67i5jxg7HGIT4Vi0hyrMtjFvFx_H1gFM
1174,1,"[{""page_index"":0,""viewing_time"":2542}]",2543,instructions,8,379897,0.0-8.0,2021-12-07 03:31:35,174.109.74.187,"Mozilla/5.0 (Macintosh; Intel Mac OS X 10_15_6) AppleWebKit/605.1.15 (KHTML, like Gecko) Version/15.1 Safari/605.1.15",Macintosh,Safari,15.1,OS X,10_15_6,447d70a80c75dce987d9c5508038710f,"""","""","""","""",IwAR1fp_jrSOxxxzRIsHrzKR0qPyV67i5jxg7HGIT4Vi0hyrMtjFvFx_H1gFM
1174,1,"""",33875,html-slider-response,9,413774,0.0-9.0,2021-12-07 03:31:35,174.109.74.187,"Mozilla/5.0 (Macintosh; Intel Mac OS X 10_15_6) AppleWebKit/605.1.15 (KHTML, like Gecko) Version/15.1 Safari/605.1.15",Macintosh,Safari,15.1,OS X,10_15_6,447d70a80c75dce987d9c5508038710f,49,"""",<p></p>,50,IwAR1fp_jrSOxxxzRIsHrzKR0qPyV67i5jxg7HGIT4Vi0hyrMtjFvFx_H1gFM
1174,1,"""",11139.999999999942,html-slider-response,10,424917,0.0-10.0,2021-12-07 03:31:35,174.109.74.187,"Mozilla/5.0 (Macintosh; Intel Mac OS X 10_15_6) AppleWebKit/605.1.15 (KHTML, like Gecko) Version/15.1 Safari/605.1.15",Macintosh,Safari,15.1,OS X,10_15_6,447d70a80c75dce987d9c5508038710f,0,"""",<p></p>,50,IwAR1fp_jrSOxxxzRIsHrzKR0qPyV67i5jxg7HGIT4Vi0hyrMtjFvFx_H1gFM
12,1,"[{""page_index"":0,""viewing_time"":17194.099999999627},{""page_index"":1,""viewing_time"":3101.7999999998137},{""page_index"":2,""viewing_time"":2972.100000000559}]",23268.39999999944,instructions,0,23279,0.0-0.0,2021-11-22 05:35:14,8.9.94.78,"Mozilla/5.0 (Windows NT 10.0; Win64; x64) AppleWebKit/537.36 (KHTML, like Gecko) Chrome/96.0.4664.45 Safari/537.36",WebKit,Chrome,96.0.4664.45,Windows,10.0,5e5968d22ea8ee3be719359476ffd399,,,,,
119,1,"[{""page_index"":0,""viewing_time"":28249},{""page_index"":1,""viewing_time"":19612},{""page_index"":2,""viewing_time"":3576}]",51443,instructions,0,51493,0.0-0.0,2021-11-27 19:32:42,107.77.200.106,"Mozilla/5.0 (iPhone; CPU iPhone OS 15_1 like Mac OS X) AppleWebKit/605.1.15 (KHTML, like Gecko) Mobile/19B74 [FBAN/FBIOS;FBDV/iPhone11,8;FBMD/iPhone;FBSN/iOS;FBSV/15.1;FBSS/2;FBID/phone;FBLC/en_US;FBOP/5]",iPhone,Mozilla,,iOS,15_1,447d70a80c75dce987d9c5508038710f,"""","""",,,IwAR2ilQJYVCx_XyoYd-aCsOZNgg903G6VWlGob16QPdI-UKIQ0O7CNoOOb7s
119,1,"[{""page_index"":0,""viewing_time"":1780.0000000000073}]",1781,instructions,1,53325,0.0-1.0,2021-11-27 19:32:42,107.77.200.106,"Mozilla/5.0 (iPhone; CPU iPhone OS 15_1 like Mac OS X) AppleWebKit/605.1.15 (KHTML, like Gecko) Mobile/19B74 [FBAN/FBIOS;FBDV/iPhone11,8;FBMD/iPhone;FBSN/iOS;FBSV/15.1;FBSS/2;FBID/phone;FBLC/en_US;FBOP/5]",iPhone,Mozilla,,iOS,15_1,447d70a80c75dce987d9c5508038710f,"""","""",,,IwAR2ilQJYVCx_XyoYd-aCsOZNgg903G6VWlGob16QPdI-UKIQ0O7CNoOOb7s
119,1,"""",246670,survey-likert,2,300065,0.0-2.0,2021-11-27 19:32:42,107.77.200.106,"Mozilla/5.0 (iPhone; CPU iPhone OS 15_1 like Mac OS X) AppleWebKit/605.1.15 (KHTML, like Gecko) Mobile/19B74 [FBAN/FBIOS;FBDV/iPhone11,8;FBMD/iPhone;FBSN/iOS;FBSV/15.1;FBSS/2;FBID/phone;FBLC/en_US;FBOP/5]",iPhone,Mozilla,,iOS,15_1,447d70a80c75dce987d9c5508038710f,"{""ap_ref_tonal_03"":2,""ap_id_440_23"":6,""rp_produce_interval_05"":7,""ap_id_interval_18"":3,""ap_produce_interval_19"":6,""ap_name_relation_20"":6,""rp_to_ap_14"":2,""ap_produce_tonality_17"":2,""rp_produce_tonality_02"":6,""rp_produce_440_09"":3,""ap_to_rp_22"":6,""rp_id_44_08"":2,""ap_remember_group_27"":2,""ap_ref_tonal_15"":2,""rp_name_relation_06"":2,""ap_perceive_same_21"":2,""rp_id_interval_04"":6,""ap_produce_abref_26"":6,""ap_lose_28"":5,""rp_remember_group_12"":6,""rp_perceive_same_07"":6,""ap_name_abref_25"":6,""ap_ref_tonal_16"":6,""rp_produce_abref_11"":1,""rp_lose_13"":5,""ap_produce_440_24"":6,""rp_name_abref_10"":1,""rp_ref_tonal_01"":6}","[2,22,4,17,18,19,13,16,1,8,21,7,26,14,5,20,3,25,27,11,6,24,15,10,12,23,9,0]",,,IwAR2ilQJYVCx_XyoYd-aCsOZNgg903G6VWlGob16QPdI-UKIQ0O7CNoOOb7s
117,1,"[{""page_index"":0,""viewing_time"":169594},{""page_index"":1,""viewing_time"":14517},{""page_index"":2,""viewing_time"":3527}]",187639,instructions,0,187660,0.0-0.0,2021-11-27 19:18:35,63.208.139.119,"Mozilla/5.0 (iPhone; CPU iPhone OS 15_1 like Mac OS X) AppleWebKit/605.1.15 (KHTML, like Gecko) Mobile/19B74 [FBAN/FBIOS;FBDV/iPhone12,5;FBMD/iPhone;FBSN/iOS;FBSV/15.1;FBSS/3;FBID/phone;FBLC/en_US;FBOP/5]",iPhone,Mozilla,,iOS,15_1,447d70a80c75dce987d9c5508038710f,"""","""",,,IwAR0xUKNmGNGbkg_0hERrMJO6WITY7f2R1VoUBW4yJ2hFsBd73VFEbVvEjH4
117,1,"[{""page_index"":0,""viewing_time"":2582}]",2582,instructions,1,190260,0.0-1.0,2021-11-27 19:18:35,63.208.139.119,"Mozilla/5.0 (iPhone; CPU iPhone OS 15_1 like Mac OS X) AppleWebKit/605.1.15 (KHTML, like Gecko) Mobile/19B74 [FBAN/FBIOS;FBDV/iPhone12,5;FBMD/iPhone;FBSN/iOS;FBSV/15.1;FBSS/3;FBID/phone;FBLC/en_US;FBOP/5]",iPhone,Mozilla,,iOS,15_1,447d70a80c75dce987d9c5508038710f,"""","""",,,IwAR0xUKNmGNGbkg_0hERrMJO6WITY7f2R1VoUBW4yJ2hFsBd73VFEbVvEjH4
117,1,"""",383318,survey-likert,2,573607,0.0-2.0,2021-11-27 19:18:35,63.208.139.119,"Mozilla/5.0 (iPhone; CPU iPhone OS 15_1 like Mac OS X) AppleWebKit/605.1.15 (KHTML, like Gecko) Mobile/19B74 [FBAN/FBIOS;FBDV/iPhone12,5;FBMD/iPhone;FBSN/iOS;FBSV/15.1;FBSS/3;FBID/phone;FBLC/en_US;FBOP/5]",iPhone,Mozilla,,iOS,15_1,447d70a80c75dce987d9c5508038710f,"{""rp_remember_group_12"":6,""ap_ref_tonal_15"":1,""rp_to_ap_14"":0,""ap_ref_tonal_16"":6,""ap_produce_440_24"":6,""rp_id_interval_04"":1,""rp_name_abref_10"":0,""ap_id_440_23"":6,""rp_produce_tonality_02"":6,""ap_lose_28"":3,""rp_produce_interval_05"":3,""rp_produce_440_09"":2,""ap_name_abref_25"":6,""ap_produce_tonality_17"":1,""ap_produce_abref_26"":7,""rp_perceive_same_07"":1,""ap_remember_group_27"":1,""ap_ref_tonal_03"":0,""ap_produce_interval_19"":0,""ap_to_rp_22"":0,""rp_ref_tonal_01"":6,""rp_produce_abref_11"":0,""rp_lose_13"":0,""ap_id_interval_18"":0,""rp_id_44_08"":0,""ap_perceive_same_21"":0,""rp_name_relation_06"":4,""ap_name_relation_20"":0}","[11,14,13,15,23,3,9,22,1,27,4,8,24,16,25,6,26,2,18,21,0,10,12,17,7,20,5,19]",,,IwAR0xUKNmGNGbkg_0hERrMJO6WITY7f2R1VoUBW4yJ2hFsBd73VFEbVvEjH4
117,1,"""",64075,survey-text,3,637699,0.0-3.0,2021-11-27 19:18:35,63.208.139.119,"Mozilla/5.0 (iPhone; CPU iPhone OS 15_1 like Mac OS X) AppleWebKit/605.1.15 (KHTML, like Gecko) Mobile/19B74 [FBAN/FBIOS;FBDV/iPhone12,5;FBMD/iPhone;FBSN/iOS;FBSV/15.1;FBSS/3;FBID/phone;FBLC/en_US;FBOP/5]",iPhone,Mozilla,,iOS,15_1,447d70a80c75dce987d9c5508038710f,"{""Q0"":""The ability to identify or produce tones using a given reference pitch. ""}","""",,,IwAR0xUKNmGNGbkg_0hERrMJO6WITY7f2R1VoUBW4yJ2hFsBd73VFEbVvEjH4
117,1,"""",67253,survey-text,4,704956,0.0-4.0,2021-11-27 19:18:35,63.208.139.119,"Mozilla/5.0 (iPhone; CPU iPhone OS 15_1 like Mac OS X) AppleWebKit/605.1.15 (KHTML, like Gecko) Mobile/19B74 [FBAN/FBIOS;FBDV/iPhone12,5;FBMD/iPhone;FBSN/iOS;FBSV/15.1;FBSS/3;FBID/phone;FBLC/en_US;FBOP/5]",iPhone,Mozilla,,iOS,15_1,447d70a80c75dce987d9c5508038710f,"{""Q0"":""The ability to identify or produce tones from a remembered reference source. ""}","""",,,IwAR0xUKNmGNGbkg_0hERrMJO6WITY7f2R1VoUBW4yJ2hFsBd73VFEbVvEjH4
117,1,"[{""page_index"":0,""viewing_time"":6841}]",6841,instructions,5,711802,0.0-5.0,2021-11-27 19:18:35,63.208.139.119,"Mozilla/5.0 (iPhone; CPU iPhone OS 15_1 like Mac OS X) AppleWebKit/605.1.15 (KHTML, like Gecko) Mobile/19B74 [FBAN/FBIOS;FBDV/iPhone12,5;FBMD/iPhone;FBSN/iOS;FBSV/15.1;FBSS/3;FBID/phone;FBLC/en_US;FBOP/5]",iPhone,Mozilla,,iOS,15_1,447d70a80c75dce987d9c5508038710f,"""","""",,,IwAR0xUKNmGNGbkg_0hERrMJO6WITY7f2R1VoUBW4yJ2hFsBd73VFEbVvEjH4
117,1,"""",157667,survey-likert,6,869479,0.0-6.0,2021-11-27 19:18:35,63.208.139.119,"Mozilla/5.0 (iPhone; CPU iPhone OS 15_1 like Mac OS X) AppleWebKit/605.1.15 (KHTML, like Gecko) Mobile/19B74 [FBAN/FBIOS;FBDV/iPhone12,5;FBMD/iPhone;FBSN/iOS;FBSV/15.1;FBSS/3;FBID/phone;FBLC/en_US;FBOP/5]",iPhone,Mozilla,,iOS,15_1,447d70a80c75dce987d9c5508038710f,"{""ap_trained_ap_11"":0,""ap_people_all_8"":0,""ap_normal_13"":0,""rp_better_others_7"":7,""rp_trained_ap_4"":6,""ap_override_10"":0,""ap_better_others_14"":6,""rp_tonedeaf_5"":2,""rp_normal_6"":2,""rp_override_3"":5,""ap_tonedeaf_12"":0,""re_people_al_1"":6,""ap_impaired_9"":4,""rp_impaired_2"":2}","[10,7,12,6,3,9,13,4,5,2,11,0,8,1]",,,IwAR0xUKNmGNGbkg_0hERrMJO6WITY7f2R1VoUBW4yJ2hFsBd73VFEbVvEjH4
117,1,"[{""page_index"":0,""viewing_time"":7737}]",7737,instructions,7,877223,0.0-7.0,2021-11-27 19:18:35,63.208.139.119,"Mozilla/5.0 (iPhone; CPU iPhone OS 15_1 like Mac OS X) AppleWebKit/605.1.15 (KHTML, like Gecko) Mobile/19B74 [FBAN/FBIOS;FBDV/iPhone12,5;FBMD/iPhone;FBSN/iOS;FBSV/15.1;FBSS/3;FBID/phone;FBLC/en_US;FBOP/5]",iPhone,Mozilla,,iOS,15_1,447d70a80c75dce987d9c5508038710f,"""","""",,,IwAR0xUKNmGNGbkg_0hERrMJO6WITY7f2R1VoUBW4yJ2hFsBd73VFEbVvEjH4
117,1,"[{""page_index"":0,""viewing_time"":9909.000000000116}]",9910,instructions,8,887135,0.0-8.0,2021-11-27 19:18:35,63.208.139.119,"Mozilla/5.0 (iPhone; CPU iPhone OS 15_1 like Mac OS X) AppleWebKit/605.1.15 (KHTML, like Gecko) Mobile/19B74 [FBAN/FBIOS;FBDV/iPhone12,5;FBMD/iPhone;FBSN/iOS;FBSV/15.1;FBSS/3;FBID/phone;FBLC/en_US;FBOP/5]",iPhone,Mozilla,,iOS,15_1,447d70a80c75dce987d9c5508038710f,"""","""",,,IwAR0xUKNmGNGbkg_0hERrMJO6WITY7f2R1VoUBW4yJ2hFsBd73VFEbVvEjH4
125,1,"[{""page_index"":0,""viewing_time"":12975},{""page_index"":1,""viewing_time"":18919},{""page_index"":2,""viewing_time"":2735}]",34629,instructions,0,34638,0.0-0.0,2021-11-27 20:22:26,73.128.50.214,"Mozilla/5.0 (Macintosh; Intel Mac OS X 10_15_7) AppleWebKit/605.1.15 (KHTML, like Gecko) Version/14.1.2 Safari/605.1.15",Macintosh,Safari,14.1.2,OS X,10_15_7,447d70a80c75dce987d9c5508038710f,,,,,
122,1,"[{""page_index"":0,""viewing_time"":12547},{""page_index"":1,""viewing_time"":14642},{""page_index"":2,""viewing_time"":1820}]",29011,instructions,0,29024,0.0-0.0,2021-11-27 20:11:42,24.18.107.152,"Mozilla/5.0 (iPhone; CPU iPhone OS 14_8_1 like Mac OS X) AppleWebKit/605.1.15 (KHTML, like Gecko) Mobile/18H107 [FBAN/FBIOS;FBDV/iPhone12,1;FBMD/iPhone;FBSN/iOS;FBSV/14.8.1;FBSS/2;FBID/phone;FBLC/en_US;FBOP/5]",iPhone,Mozilla,,iOS,14_8_1,447d70a80c75dce987d9c5508038710f,"""","""","""","""",IwAR0hYX1_BXtAG-HKECsh4Bh-phMVLY6F4y4muTh2dMhzSAvIgccWjE4tOiM
122,1,"[{""page_index"":0,""viewing_time"":2695}]",2695,instructions,1,31734,0.0-1.0,2021-11-27 20:11:42,24.18.107.152,"Mozilla/5.0 (iPhone; CPU iPhone OS 14_8_1 like Mac OS X) AppleWebKit/605.1.15 (KHTML, like Gecko) Mobile/18H107 [FBAN/FBIOS;FBDV/iPhone12,1;FBMD/iPhone;FBSN/iOS;FBSV/14.8.1;FBSS/2;FBID/phone;FBLC/en_US;FBOP/5]",iPhone,Mozilla,,iOS,14_8_1,447d70a80c75dce987d9c5508038710f,"""","""","""","""",IwAR0hYX1_BXtAG-HKECsh4Bh-phMVLY6F4y4muTh2dMhzSAvIgccWjE4tOiM
122,1,"""",162396,survey-likert,2,194158,0.0-2.0,2021-11-27 20:11:42,24.18.107.152,"Mozilla/5.0 (iPhone; CPU iPhone OS 14_8_1 like Mac OS X) AppleWebKit/605.1.15 (KHTML, like Gecko) Mobile/18H107 [FBAN/FBIOS;FBDV/iPhone12,1;FBMD/iPhone;FBSN/iOS;FBSV/14.8.1;FBSS/2;FBID/phone;FBLC/en_US;FBOP/5]",iPhone,Mozilla,,iOS,14_8_1,447d70a80c75dce987d9c5508038710f,"{""ap_id_interval_18"":0,""ap_ref_tonal_15"":0,""rp_produce_interval_05"":7,""rp_remember_group_12"":7,""rp_name_abref_10"":0,""rp_lose_13"":2,""ap_remember_group_27"":4,""ap_name_relation_20"":5,""rp_perceive_same_07"":5,""rp_name_relation_06"":5,""ap_produce_interval_19"":3,""rp_ref_tonal_01"":7,""rp_to_ap_14"":0,""rp_id_interval_04"":7,""ap_produce_tonality_17"":0,""ap_produce_abref_26"":7,""ap_perceive_same_21"":1,""ap_ref_tonal_03"":0,""rp_produce_tonality_02"":7,""rp_id_44_08"":1,""ap_lose_28"":7,""ap_id_440_23"":2,""ap_produce_440_24"":2,""rp_produce_abref_11"":0,""ap_to_rp_22"":7,""rp_produce_440_09"":6,""ap_name_abref_25"":7,""ap_ref_tonal_16"":7}","[17,14,4,11,9,12,26,19,6,5,18,0,13,3,16,25,20,2,1,7,27,22,23,10,21,8,24,15]","""","""",IwAR0hYX1_BXtAG-HKECsh4Bh-phMVLY6F4y4muTh2dMhzSAvIgccWjE4tOiM
122,1,"""",24318.00000000003,survey-text,3,218490,0.0-3.0,2021-11-27 20:11:42,24.18.107.152,"Mozilla/5.0 (iPhone; CPU iPhone OS 14_8_1 like Mac OS X) AppleWebKit/605.1.15 (KHTML, like Gecko) Mobile/18H107 [FBAN/FBIOS;FBDV/iPhone12,1;FBMD/iPhone;FBSN/iOS;FBSV/14.8.1;FBSS/2;FBID/phone;FBLC/en_US;FBOP/5]",iPhone,Mozilla,,iOS,14_8_1,447d70a80c75dce987d9c5508038710f,"{""Q0"":""Not applicable ""}","""","""","""",IwAR0hYX1_BXtAG-HKECsh4Bh-phMVLY6F4y4muTh2dMhzSAvIgccWjE4tOiM
122,1,"""",9199.99999999997,survey-text,4,227696,0.0-4.0,2021-11-27 20:11:42,24.18.107.152,"Mozilla/5.0 (iPhone; CPU iPhone OS 14_8_1 like Mac OS X) AppleWebKit/605.1.15 (KHTML, like Gecko) Mobile/18H107 [FBAN/FBIOS;FBDV/iPhone12,1;FBMD/iPhone;FBSN/iOS;FBSV/14.8.1;FBSS/2;FBID/phone;FBLC/en_US;FBOP/5]",iPhone,Mozilla,,iOS,14_8_1,447d70a80c75dce987d9c5508038710f,"{""Q0"":""Not applicable ""}","""","""","""",IwAR0hYX1_BXtAG-HKECsh4Bh-phMVLY6F4y4muTh2dMhzSAvIgccWjE4tOiM
122,1,"[{""page_index"":0,""viewing_time"":4412}]",4412,instructions,5,232113,0.0-5.0,2021-11-27 20:11:42,24.18.107.152,"Mozilla/5.0 (iPhone; CPU iPhone OS 14_8_1 like Mac OS X) AppleWebKit/605.1.15 (KHTML, like Gecko) Mobile/18H107 [FBAN/FBIOS;FBDV/iPhone12,1;FBMD/iPhone;FBSN/iOS;FBSV/14.8.1;FBSS/2;FBID/phone;FBLC/en_US;FBOP/5]",iPhone,Mozilla,,iOS,14_8_1,447d70a80c75dce987d9c5508038710f,"""","""","""","""",IwAR0hYX1_BXtAG-HKECsh4Bh-phMVLY6F4y4muTh2dMhzSAvIgccWjE4tOiM
122,1,"""",78867.99999999997,survey-likert,6,310992,0.0-6.0,2021-11-27 20:11:42,24.18.107.152,"Mozilla/5.0 (iPhone; CPU iPhone OS 14_8_1 like Mac OS X) AppleWebKit/605.1.15 (KHTML, like Gecko) Mobile/18H107 [FBAN/FBIOS;FBDV/iPhone12,1;FBMD/iPhone;FBSN/iOS;FBSV/14.8.1;FBSS/2;FBID/phone;FBLC/en_US;FBOP/5]",iPhone,Mozilla,,iOS,14_8_1,447d70a80c75dce987d9c5508038710f,"{""rp_normal_6"":4,""re_people_al_1"":5,""ap_tonedeaf_12"":1,""rp_better_others_7"":6,""rp_impaired_2"":0,""rp_trained_ap_4"":2,""ap_people_all_8"":0,""ap_override_10"":7,""ap_normal_13"":1,""ap_better_others_14"":7,""ap_trained_ap_11"":2,""ap_impaired_9"":6,""rp_tonedeaf_5"":3,""rp_override_3"":6}","[5,0,11,6,1,3,7,9,12,13,10,8,4,2]","""","""",IwAR0hYX1_BXtAG-HKECsh4Bh-phMVLY6F4y4muTh2dMhzSAvIgccWjE4tOiM
122,1,"[{""page_index"":0,""viewing_time"":140350.00000000006}]",140350.00000000006,instructions,7,1358133,0.0-7.0,2021-11-27 20:11:42,24.18.107.152,"Mozilla/5.0 (iPhone; CPU iPhone OS 14_8_1 like Mac OS X) AppleWebKit/605.1.15 (KHTML, like Gecko) Mobile/18H107 [FBAN/FBIOS;FBDV/iPhone12,1;FBMD/iPhone;FBSN/iOS;FBSV/14.8.1;FBSS/2;FBID/phone;FBLC/en_US;FBOP/5]",iPhone,Mozilla,,iOS,14_8_1,447d70a80c75dce987d9c5508038710f,"""","""","""","""",IwAR0hYX1_BXtAG-HKECsh4Bh-phMVLY6F4y4muTh2dMhzSAvIgccWjE4tOiM
122,1,"[{""page_index"":0,""viewing_time"":1296}]",1296,instructions,8,1359432,0.0-8.0,2021-11-27 20:11:42,24.18.107.152,"Mozilla/5.0 (iPhone; CPU iPhone OS 14_8_1 like Mac OS X) AppleWebKit/605.1.15 (KHTML, like Gecko) Mobile/18H107 [FBAN/FBIOS;FBDV/iPhone12,1;FBMD/iPhone;FBSN/iOS;FBSV/14.8.1;FBSS/2;FBID/phone;FBLC/en_US;FBOP/5]",iPhone,Mozilla,,iOS,14_8_1,447d70a80c75dce987d9c5508038710f,"""","""","""","""",IwAR0hYX1_BXtAG-HKECsh4Bh-phMVLY6F4y4muTh2dMhzSAvIgccWjE4tOiM
122,1,"""",29813,html-slider-response,9,1389258,0.0-9.0,2021-11-27 20:11:42,24.18.107.152,"Mozilla/5.0 (iPhone; CPU iPhone OS 14_8_1 like Mac OS X) AppleWebKit/605.1.15 (KHTML, like Gecko) Mobile/18H107 [FBAN/FBIOS;FBDV/iPhone12,1;FBMD/iPhone;FBSN/iOS;FBSV/14.8.1;FBSS/2;FBID/phone;FBLC/en_US;FBOP/5]",iPhone,Mozilla,,iOS,14_8_1,447d70a80c75dce987d9c5508038710f,86,"""",<p></p>,50,IwAR0hYX1_BXtAG-HKECsh4Bh-phMVLY6F4y4muTh2dMhzSAvIgccWjE4tOiM
122,1,"""",4563,html-slider-response,10,1393825,0.0-10.0,2021-11-27 20:11:42,24.18.107.152,"Mozilla/5.0 (iPhone; CPU iPhone OS 14_8_1 like Mac OS X) AppleWebKit/605.1.15 (KHTML, like Gecko) Mobile/18H107 [FBAN/FBIOS;FBDV/iPhone12,1;FBMD/iPhone;FBSN/iOS;FBSV/14.8.1;FBSS/2;FBID/phone;FBLC/en_US;FBOP/5]",iPhone,Mozilla,,iOS,14_8_1,447d70a80c75dce987d9c5508038710f,3,"""",<p></p>,50,IwAR0hYX1_BXtAG-HKECsh4Bh-phMVLY6F4y4muTh2dMhzSAvIgccWjE4tOiM
122,1,"""",13859,survey-likert,11,1407693,0.0-11.0,2021-11-27 20:11:42,24.18.107.152,"Mozilla/5.0 (iPhone; CPU iPhone OS 14_8_1 like Mac OS X) AppleWebKit/605.1.15 (KHTML, like Gecko) Mobile/18H107 [FBAN/FBIOS;FBDV/iPhone12,1;FBMD/iPhone;FBSN/iOS;FBSV/14.8.1;FBSS/2;FBID/phone;FBLC/en_US;FBOP/5]",iPhone,Mozilla,,iOS,14_8_1,447d70a80c75dce987d9c5508038710f,"{""inst_priority_ap_01"":0,""inst_priority_rp_02"":4,""you_priority_ap_03"":0,""you_priority_rp_04"":4}","[0,1,2,3]","""","""",IwAR0hYX1_BXtAG-HKECsh4Bh-phMVLY6F4y4muTh2dMhzSAvIgccWjE4tOiM
122,1,"""",56911,survey-text,12,1464620,0.0-12.0,2021-11-27 20:11:42,24.18.107.152,"Mozilla/5.0 (iPhone; CPU iPhone OS 14_8_1 like Mac OS X) AppleWebKit/605.1.15 (KHTML, like Gecko) Mobile/18H107 [FBAN/FBIOS;FBDV/iPhone12,1;FBMD/iPhone;FBSN/iOS;FBSV/14.8.1;FBSS/2;FBID/phone;FBLC/en_US;FBOP/5]",iPhone,Mozilla,,iOS,14_8_1,447d70a80c75dce987d9c5508038710f,"{""Q0"":""Taking melodic dictation of diatonic music using scale degrees or solfege ""}","""","""","""",IwAR0hYX1_BXtAG-HKECsh4Bh-phMVLY6F4y4muTh2dMhzSAvIgccWjE4tOiM
122,1,"""",22434.999999999884,survey-likert,13,1487064,0.0-13.0,2021-11-27 20:11:42,24.18.107.152,"Mozilla/5.0 (iPhone; CPU iPhone OS 14_8_1 like Mac OS X) AppleWebKit/605.1.15 (KHTML, like Gecko) Mobile/18H107 [FBAN/FBIOS;FBDV/iPhone12,1;FBMD/iPhone;FBSN/iOS;FBSV/14.8.1;FBSS/2;FBID/phone;FBLC/en_US;FBOP/5]",iPhone,Mozilla,,iOS,14_8_1,447d70a80c75dce987d9c5508038710f,"{""use_skill_freq_01"":7,""easy_teach_02"":7,""easy_to_learn_03"":4,""helps_relative_04"":7,""reps_relative_05"":6}","[0,1,2,3,4]","""","""",IwAR0hYX1_BXtAG-HKECsh4Bh-phMVLY6F4y4muTh2dMhzSAvIgccWjE4tOiM
122,1,"""",54771.99999999988,survey-text,14,1541851,0.0-14.0,2021-11-27 20:11:42,24.18.107.152,"Mozilla/5.0 (iPhone; CPU iPhone OS 14_8_1 like Mac OS X) AppleWebKit/605.1.15 (KHTML, like Gecko) Mobile/18H107 [FBAN/FBIOS;FBDV/iPhone12,1;FBMD/iPhone;FBSN/iOS;FBSV/14.8.1;FBSS/2;FBID/phone;FBLC/en_US;FBOP/5]",iPhone,Mozilla,,iOS,14_8_1,447d70a80c75dce987d9c5508038710f,"{""Q0"":""Hearing relationships between two or more pitches using call and response activities""}","""","""","""",IwAR0hYX1_BXtAG-HKECsh4Bh-phMVLY6F4y4muTh2dMhzSAvIgccWjE4tOiM
122,1,"""",20671,survey-likert,15,1562534,0.0-15.0,2021-11-27 20:11:42,24.18.107.152,"Mozilla/5.0 (iPhone; CPU iPhone OS 14_8_1 like Mac OS X) AppleWebKit/605.1.15 (KHTML, like Gecko) Mobile/18H107 [FBAN/FBIOS;FBDV/iPhone12,1;FBMD/iPhone;FBSN/iOS;FBSV/14.8.1;FBSS/2;FBID/phone;FBLC/en_US;FBOP/5]",iPhone,Mozilla,,iOS,14_8_1,447d70a80c75dce987d9c5508038710f,"{""use_skill_freq_01"":7,""easy_teach_02"":7,""easy_to_learn_03"":6,""helps_relative_04"":6,""reps_relative_05"":7}","[0,1,2,3,4]","""","""",IwAR0hYX1_BXtAG-HKECsh4Bh-phMVLY6F4y4muTh2dMhzSAvIgccWjE4tOiM
122,1,"""",49622,survey-text,16,1612169,0.0-16.0,2021-11-27 20:11:42,24.18.107.152,"Mozilla/5.0 (iPhone; CPU iPhone OS 14_8_1 like Mac OS X) AppleWebKit/605.1.15 (KHTML, like Gecko) Mobile/18H107 [FBAN/FBIOS;FBDV/iPhone12,1;FBMD/iPhone;FBSN/iOS;FBSV/14.8.1;FBSS/2;FBID/phone;FBLC/en_US;FBOP/5]",iPhone,Mozilla,,iOS,14_8_1,447d70a80c75dce987d9c5508038710f,"{""Q0"":""Aurally Identifying harmonic functions of chords in a piece of music ""}","""","""","""",IwAR0hYX1_BXtAG-HKECsh4Bh-phMVLY6F4y4muTh2dMhzSAvIgccWjE4tOiM
122,1,"""",19965,survey-likert,17,1632145,0.0-17.0,2021-11-27 20:11:42,24.18.107.152,"Mozilla/5.0 (iPhone; CPU iPhone OS 14_8_1 like Mac OS X) AppleWebKit/605.1.15 (KHTML, like Gecko) Mobile/18H107 [FBAN/FBIOS;FBDV/iPhone12,1;FBMD/iPhone;FBSN/iOS;FBSV/14.8.1;FBSS/2;FBID/phone;FBLC/en_US;FBOP/5]",iPhone,Mozilla,,iOS,14_8_1,447d70a80c75dce987d9c5508038710f,"{""use_skill_freq_01"":5,""easy_teach_02"":5,""easy_to_learn_03"":3,""helps_relative_04"":6,""reps_relative_05"":6}","[0,1,2,3,4]","""","""",IwAR0hYX1_BXtAG-HKECsh4Bh-phMVLY6F4y4muTh2dMhzSAvIgccWjE4tOiM
122,1,"""",42182.99999999988,survey-text,18,1674340,0.0-18.0,2021-11-27 20:11:42,24.18.107.152,"Mozilla/5.0 (iPhone; CPU iPhone OS 14_8_1 like Mac OS X) AppleWebKit/605.1.15 (KHTML, like Gecko) Mobile/18H107 [FBAN/FBIOS;FBDV/iPhone12,1;FBMD/iPhone;FBSN/iOS;FBSV/14.8.1;FBSS/2;FBID/phone;FBLC/en_US;FBOP/5]",iPhone,Mozilla,,iOS,14_8_1,447d70a80c75dce987d9c5508038710f,"{""Q0"":""Singing arpeggiated triads and seventh chords within a key""}","""","""","""",IwAR0hYX1_BXtAG-HKECsh4Bh-phMVLY6F4y4muTh2dMhzSAvIgccWjE4tOiM
122,1,"""",17166.999999999884,survey-likert,19,1691518,0.0-19.0,2021-11-27 20:11:42,24.18.107.152,"Mozilla/5.0 (iPhone; CPU iPhone OS 14_8_1 like Mac OS X) AppleWebKit/605.1.15 (KHTML, like Gecko) Mobile/18H107 [FBAN/FBIOS;FBDV/iPhone12,1;FBMD/iPhone;FBSN/iOS;FBSV/14.8.1;FBSS/2;FBID/phone;FBLC/en_US;FBOP/5]",iPhone,Mozilla,,iOS,14_8_1,447d70a80c75dce987d9c5508038710f,"{""use_skill_freq_01"":6,""easy_teach_02"":7,""easy_to_learn_03"":5,""helps_relative_04"":5,""reps_relative_05"":6}","[0,1,2,3,4]","""","""",IwAR0hYX1_BXtAG-HKECsh4Bh-phMVLY6F4y4muTh2dMhzSAvIgccWjE4tOiM
122,1,"""",58605,survey-text,20,1750139,0.0-20.0,2021-11-27 20:11:42,24.18.107.152,"Mozilla/5.0 (iPhone; CPU iPhone OS 14_8_1 like Mac OS X) AppleWebKit/605.1.15 (KHTML, like Gecko) Mobile/18H107 [FBAN/FBIOS;FBDV/iPhone12,1;FBMD/iPhone;FBSN/iOS;FBSV/14.8.1;FBSS/2;FBID/phone;FBLC/en_US;FBOP/5]",iPhone,Mozilla,,iOS,14_8_1,447d70a80c75dce987d9c5508038710f,"{""Q0"":""Having students improvise with solfege in a key""}","""","""","""",IwAR0hYX1_BXtAG-HKECsh4Bh-phMVLY6F4y4muTh2dMhzSAvIgccWjE4tOiM
122,1,"""",15118,survey-likert,21,1765266,0.0-21.0,2021-11-27 20:11:42,24.18.107.152,"Mozilla/5.0 (iPhone; CPU iPhone OS 14_8_1 like Mac OS X) AppleWebKit/605.1.15 (KHTML, like Gecko) Mobile/18H107 [FBAN/FBIOS;FBDV/iPhone12,1;FBMD/iPhone;FBSN/iOS;FBSV/14.8.1;FBSS/2;FBID/phone;FBLC/en_US;FBOP/5]",iPhone,Mozilla,,iOS,14_8_1,447d70a80c75dce987d9c5508038710f,"{""use_skill_freq_01"":5,""easy_teach_02"":2,""easy_to_learn_03"":2,""helps_relative_04"":6,""reps_relative_05"":5}","[0,1,2,3,4]","""","""",IwAR0hYX1_BXtAG-HKECsh4Bh-phMVLY6F4y4muTh2dMhzSAvIgccWjE4tOiM
122,1,"[{""page_index"":0,""viewing_time"":1345.0000000001164}]",1347,instructions,22,1766620,0.0-22.0,2021-11-27 20:11:42,24.18.107.152,"Mozilla/5.0 (iPhone; CPU iPhone OS 14_8_1 like Mac OS X) AppleWebKit/605.1.15 (KHTML, like Gecko) Mobile/18H107 [FBAN/FBIOS;FBDV/iPhone12,1;FBMD/iPhone;FBSN/iOS;FBSV/14.8.1;FBSS/2;FBID/phone;FBLC/en_US;FBOP/5]",iPhone,Mozilla,,iOS,14_8_1,447d70a80c75dce987d9c5508038710f,"""","""","""","""",IwAR0hYX1_BXtAG-HKECsh4Bh-phMVLY6F4y4muTh2dMhzSAvIgccWjE4tOiM
122,1,"""",45539.99999999988,survey-text,23,1812169,0.0-23.0,2021-11-27 20:11:42,24.18.107.152,"Mozilla/5.0 (iPhone; CPU iPhone OS 14_8_1 like Mac OS X) AppleWebKit/605.1.15 (KHTML, like Gecko) Mobile/18H107 [FBAN/FBIOS;FBDV/iPhone12,1;FBMD/iPhone;FBSN/iOS;FBSV/14.8.1;FBSS/2;FBID/phone;FBLC/en_US;FBOP/5]",iPhone,Mozilla,,iOS,14_8_1,447d70a80c75dce987d9c5508038710f,"{""Q0"":""Asking the class to try to sing a given pitch without any reference. ""}","""","""","""",IwAR0hYX1_BXtAG-HKECsh4Bh-phMVLY6F4y4muTh2dMhzSAvIgccWjE4tOiM
122,1,"""",15503,survey-likert,24,1827680,0.0-24.0,2021-11-27 20:11:42,24.18.107.152,"Mozilla/5.0 (iPhone; CPU iPhone OS 14_8_1 like Mac OS X) AppleWebKit/605.1.15 (KHTML, like Gecko) Mobile/18H107 [FBAN/FBIOS;FBDV/iPhone12,1;FBMD/iPhone;FBSN/iOS;FBSV/14.8.1;FBSS/2;FBID/phone;FBLC/en_US;FBOP/5]",iPhone,Mozilla,,iOS,14_8_1,447d70a80c75dce987d9c5508038710f,"{""teach_freq_ap_01"":0,""easy_teach_02"":0,""eash_learn_03"":0,""foster_ap_04"":5,""represent_ap_05"":3}","[0,1,2,3,4]","""","""",IwAR0hYX1_BXtAG-HKECsh4Bh-phMVLY6F4y4muTh2dMhzSAvIgccWjE4tOiM
122,1,"""",3817,survey-text,25,1831511,0.0-25.0,2021-11-27 20:11:42,24.18.107.152,"Mozilla/5.0 (iPhone; CPU iPhone OS 14_8_1 like Mac OS X) AppleWebKit/605.1.15 (KHTML, like Gecko) Mobile/18H107 [FBAN/FBIOS;FBDV/iPhone12,1;FBMD/iPhone;FBSN/iOS;FBSV/14.8.1;FBSS/2;FBID/phone;FBLC/en_US;FBOP/5]",iPhone,Mozilla,,iOS,14_8_1,447d70a80c75dce987d9c5508038710f,"{""Q0"":""}","""","""","""",IwAR0hYX1_BXtAG-HKECsh4Bh-phMVLY6F4y4muTh2dMhzSAvIgccWjE4tOiM
122,1,"""",3069,survey-likert,26,1834587,0.0-26.0,2021-11-27 20:11:42,24.18.107.152,"Mozilla/5.0 (iPhone; CPU iPhone OS 14_8_1 like Mac OS X) AppleWebKit/605.1.15 (KHTML, like Gecko) Mobile/18H107 [FBAN/FBIOS;FBDV/iPhone12,1;FBMD/iPhone;FBSN/iOS;FBSV/14.8.1;FBSS/2;FBID/phone;FBLC/en_US;FBOP/5]",iPhone,Mozilla,,iOS,14_8_1,447d70a80c75dce987d9c5508038710f,"{""teach_freq_ap_01"":"",""easy_teach_02"":"",""eash_learn_03"":"",""foster_ap_04"":"",""represent_ap_05"":""}","[0,1,2,3,4]","""","""",IwAR0hYX1_BXtAG-HKECsh4Bh-phMVLY6F4y4muTh2dMhzSAvIgccWjE4tOiM
122,1,"""",2100,survey-text,27,1836701,0.0-27.0,2021-11-27 20:11:42,24.18.107.152,"Mozilla/5.0 (iPhone; CPU iPhone OS 14_8_1 like Mac OS X) AppleWebKit/605.1.15 (KHTML, like Gecko) Mobile/18H107 [FBAN/FBIOS;FBDV/iPhone12,1;FBMD/iPhone;FBSN/iOS;FBSV/14.8.1;FBSS/2;FBID/phone;FBLC/en_US;FBOP/5]",iPhone,Mozilla,,iOS,14_8_1,447d70a80c75dce987d9c5508038710f,"{""Q0"":""}","""","""","""",IwAR0hYX1_BXtAG-HKECsh4Bh-phMVLY6F4y4muTh2dMhzSAvIgccWjE4tOiM
122,1,"""",3853,survey-likert,28,1840561,0.0-28.0,2021-11-27 20:11:42,24.18.107.152,"Mozilla/5.0 (iPhone; CPU iPhone OS 14_8_1 like Mac OS X) AppleWebKit/605.1.15 (KHTML, like Gecko) Mobile/18H107 [FBAN/FBIOS;FBDV/iPhone12,1;FBMD/iPhone;FBSN/iOS;FBSV/14.8.1;FBSS/2;FBID/phone;FBLC/en_US;FBOP/5]",iPhone,Mozilla,,iOS,14_8_1,447d70a80c75dce987d9c5508038710f,"{""teach_freq_ap_01"":"",""easy_teach_02"":"",""eash_learn_03"":"",""foster_ap_04"":"",""represent_ap_05"":""}","[0,1,2,3,4]","""","""",IwAR0hYX1_BXtAG-HKECsh4Bh-phMVLY6F4y4muTh2dMhzSAvIgccWjE4tOiM
122,1,"""",1960.9999999998836,survey-text,29,1842536,0.0-29.0,2021-11-27 20:11:42,24.18.107.152,"Mozilla/5.0 (iPhone; CPU iPhone OS 14_8_1 like Mac OS X) AppleWebKit/605.1.15 (KHTML, like Gecko) Mobile/18H107 [FBAN/FBIOS;FBDV/iPhone12,1;FBMD/iPhone;FBSN/iOS;FBSV/14.8.1;FBSS/2;FBID/phone;FBLC/en_US;FBOP/5]",iPhone,Mozilla,,iOS,14_8_1,447d70a80c75dce987d9c5508038710f,"{""Q0"":""}","""","""","""",IwAR0hYX1_BXtAG-HKECsh4Bh-phMVLY6F4y4muTh2dMhzSAvIgccWjE4tOiM
122,1,"""",4042,survey-likert,30,1846585,0.0-30.0,2021-11-27 20:11:42,24.18.107.152,"Mozilla/5.0 (iPhone; CPU iPhone OS 14_8_1 like Mac OS X) AppleWebKit/605.1.15 (KHTML, like Gecko) Mobile/18H107 [FBAN/FBIOS;FBDV/iPhone12,1;FBMD/iPhone;FBSN/iOS;FBSV/14.8.1;FBSS/2;FBID/phone;FBLC/en_US;FBOP/5]",iPhone,Mozilla,,iOS,14_8_1,447d70a80c75dce987d9c5508038710f,"{""teach_freq_ap_01"":"",""easy_teach_02"":"",""eash_learn_03"":"",""foster_ap_04"":"",""represent_ap_05"":""}","[0,1,2,3,4]","""","""",IwAR0hYX1_BXtAG-HKECsh4Bh-phMVLY6F4y4muTh2dMhzSAvIgccWjE4tOiM
122,1,"""",1773.0000000001164,survey-text,31,1848373,0.0-31.0,2021-11-27 20:11:42,24.18.107.152,"Mozilla/5.0 (iPhone; CPU iPhone OS 14_8_1 like Mac OS X) AppleWebKit/605.1.15 (KHTML, like Gecko) Mobile/18H107 [FBAN/FBIOS;FBDV/iPhone12,1;FBMD/iPhone;FBSN/iOS;FBSV/14.8.1;FBSS/2;FBID/phone;FBLC/en_US;FBOP/5]",iPhone,Mozilla,,iOS,14_8_1,447d70a80c75dce987d9c5508038710f,"{""Q0"":""}","""","""","""",IwAR0hYX1_BXtAG-HKECsh4Bh-phMVLY6F4y4muTh2dMhzSAvIgccWjE4tOiM
122,1,"""",4196,survey-likert,32,1852578,0.0-32.0,2021-11-27 20:11:42,24.18.107.152,"Mozilla/5.0 (iPhone; CPU iPhone OS 14_8_1 like Mac OS X) AppleWebKit/605.1.15 (KHTML, like Gecko) Mobile/18H107 [FBAN/FBIOS;FBDV/iPhone12,1;FBMD/iPhone;FBSN/iOS;FBSV/14.8.1;FBSS/2;FBID/phone;FBLC/en_US;FBOP/5]",iPhone,Mozilla,,iOS,14_8_1,447d70a80c75dce987d9c5508038710f,"{""teach_freq_ap_01"":"",""easy_teach_02"":"",""eash_learn_03"":"",""foster_ap_04"":"",""represent_ap_05"":""}","[0,1,2,3,4]","""","""",IwAR0hYX1_BXtAG-HKECsh4Bh-phMVLY6F4y4muTh2dMhzSAvIgccWjE4tOiM
122,1,"""",99175.00000000012,survey-text,33,1951765,0.0-33.0,2021-11-27 20:11:42,24.18.107.152,"Mozilla/5.0 (iPhone; CPU iPhone OS 14_8_1 like Mac OS X) AppleWebKit/605.1.15 (KHTML, like Gecko) Mobile/18H107 [FBAN/FBIOS;FBDV/iPhone12,1;FBMD/iPhone;FBSN/iOS;FBSV/14.8.1;FBSS/2;FBID/phone;FBLC/en_US;FBOP/5]",iPhone,Mozilla,,iOS,14_8_1,447d70a80c75dce987d9c5508038710f,"{""Q0"":""As much variety as possible. In addition to examples I provide, which include “art music” (dumb name), jazz, country, pop, hip-hop, and rock, I ask my students to use examples the select. ""}","""","""","""",IwAR0hYX1_BXtAG-HKECsh4Bh-phMVLY6F4y4muTh2dMhzSAvIgccWjE4tOiM
122,1,"""",16827,html-slider-response,34,1968596,0.0-34.0,2021-11-27 20:11:42,24.18.107.152,"Mozilla/5.0 (iPhone; CPU iPhone OS 14_8_1 like Mac OS X) AppleWebKit/605.1.15 (KHTML, like Gecko) Mobile/18H107 [FBAN/FBIOS;FBDV/iPhone12,1;FBMD/iPhone;FBSN/iOS;FBSV/14.8.1;FBSS/2;FBID/phone;FBLC/en_US;FBOP/5]",iPhone,Mozilla,,iOS,14_8_1,447d70a80c75dce987d9c5508038710f,67,"""",<p></p>,50,IwAR0hYX1_BXtAG-HKECsh4Bh-phMVLY6F4y4muTh2dMhzSAvIgccWjE4tOiM
122,1,"""",11462,survey-text,35,1980067,0.0-35.0,2021-11-27 20:11:42,24.18.107.152,"Mozilla/5.0 (iPhone; CPU iPhone OS 14_8_1 like Mac OS X) AppleWebKit/605.1.15 (KHTML, like Gecko) Mobile/18H107 [FBAN/FBIOS;FBDV/iPhone12,1;FBMD/iPhone;FBSN/iOS;FBSV/14.8.1;FBSS/2;FBID/phone;FBLC/en_US;FBOP/5]",iPhone,Mozilla,,iOS,14_8_1,447d70a80c75dce987d9c5508038710f,"{""Q0"":""I don’t know ""}","""","""","""",IwAR0hYX1_BXtAG-HKECsh4Bh-phMVLY6F4y4muTh2dMhzSAvIgccWjE4tOiM
122,1,"""",79562,survey-text,36,2059633,0.0-36.0,2021-11-27 20:11:42,24.18.107.152,"Mozilla/5.0 (iPhone; CPU iPhone OS 14_8_1 like Mac OS X) AppleWebKit/605.1.15 (KHTML, like Gecko) Mobile/18H107 [FBAN/FBIOS;FBDV/iPhone12,1;FBMD/iPhone;FBSN/iOS;FBSV/14.8.1;FBSS/2;FBID/phone;FBLC/en_US;FBOP/5]",iPhone,Mozilla,,iOS,14_8_1,447d70a80c75dce987d9c5508038710f,"{""Q0"":""Using other notation systems I have devised and also student derived systems. I also use sight singing activities but I don’t know whether you are considering that a separate class. ""}","""","""","""",IwAR0hYX1_BXtAG-HKECsh4Bh-phMVLY6F4y4muTh2dMhzSAvIgccWjE4tOiM
122,1,"""",9488.999999999767,html-slider-response,37,2069130,0.0-37.0,2021-11-27 20:11:42,24.18.107.152,"Mozilla/5.0 (iPhone; CPU iPhone OS 14_8_1 like Mac OS X) AppleWebKit/605.1.15 (KHTML, like Gecko) Mobile/18H107 [FBAN/FBIOS;FBDV/iPhone12,1;FBMD/iPhone;FBSN/iOS;FBSV/14.8.1;FBSS/2;FBID/phone;FBLC/en_US;FBOP/5]",iPhone,Mozilla,,iOS,14_8_1,447d70a80c75dce987d9c5508038710f,52,"""",<p></p>,50,IwAR0hYX1_BXtAG-HKECsh4Bh-phMVLY6F4y4muTh2dMhzSAvIgccWjE4tOiM
122,1,"[{""page_index"":0,""viewing_time"":2586}]",2586,instructions,38,2071719,0.0-38.0,2021-11-27 20:11:42,24.18.107.152,"Mozilla/5.0 (iPhone; CPU iPhone OS 14_8_1 like Mac OS X) AppleWebKit/605.1.15 (KHTML, like Gecko) Mobile/18H107 [FBAN/FBIOS;FBDV/iPhone12,1;FBMD/iPhone;FBSN/iOS;FBSV/14.8.1;FBSS/2;FBID/phone;FBLC/en_US;FBOP/5]",iPhone,Mozilla,,iOS,14_8_1,447d70a80c75dce987d9c5508038710f,"""","""","""","""",IwAR0hYX1_BXtAG-HKECsh4Bh-phMVLY6F4y4muTh2dMhzSAvIgccWjE4tOiM
122,1,"[{""page_index"":0,""viewing_time"":7060}]",7060,instructions,39,2078786,0.0-39.0,2021-11-27 20:11:42,24.18.107.152,"Mozilla/5.0 (iPhone; CPU iPhone OS 14_8_1 like Mac OS X) AppleWebKit/605.1.15 (KHTML, like Gecko) Mobile/18H107 [FBAN/FBIOS;FBDV/iPhone12,1;FBMD/iPhone;FBSN/iOS;FBSV/14.8.1;FBSS/2;FBID/phone;FBLC/en_US;FBOP/5]",iPhone,Mozilla,,iOS,14_8_1,447d70a80c75dce987d9c5508038710f,"""","""","""","""",IwAR0hYX1_BXtAG-HKECsh4Bh-phMVLY6F4y4muTh2dMhzSAvIgccWjE4tOiM
122,1,"""",54641,survey-multi-select,40,2133446,0.0-40.0,2021-11-27 20:11:42,24.18.107.152,"Mozilla/5.0 (iPhone; CPU iPhone OS 14_8_1 like Mac OS X) AppleWebKit/605.1.15 (KHTML, like Gecko) Mobile/18H107 [FBAN/FBIOS;FBDV/iPhone12,1;FBMD/iPhone;FBSN/iOS;FBSV/14.8.1;FBSS/2;FBID/phone;FBLC/en_US;FBOP/5]",iPhone,Mozilla,,iOS,14_8_1,447d70a80c75dce987d9c5508038710f,"{""Colors"":[""Music theory (Remedial Undergraduate, Written)"",""Music theory (Remedial Undergraduate, Aural)"",""Music theory (First Year Undergraduate, Written)"",""Music theory (First Year Undergraduate, Aural)"",""Music theory (First Year Undergraduate, combined Theory and Aural)"",""Music theory (Second Year Undergraduate, Written)"",""Music theory (Second Year Undergraduate, Aural)"",""Music theory (Second Year Undergraduate, combined Theory and Aural)"",""Collegiate private lessons (in music performance)"",""Music composition"",""Music courses for collegiate music majors not listed here"",""General education music courses for collegiate students""]}",[0],"""","""",IwAR0hYX1_BXtAG-HKECsh4Bh-phMVLY6F4y4muTh2dMhzSAvIgccWjE4tOiM
122,1,"""",4668,survey-text,41,2138128,0.0-41.0,2021-11-27 20:11:42,24.18.107.152,"Mozilla/5.0 (iPhone; CPU iPhone OS 14_8_1 like Mac OS X) AppleWebKit/605.1.15 (KHTML, like Gecko) Mobile/18H107 [FBAN/FBIOS;FBDV/iPhone12,1;FBMD/iPhone;FBSN/iOS;FBSV/14.8.1;FBSS/2;FBID/phone;FBLC/en_US;FBOP/5]",iPhone,Mozilla,,iOS,14_8_1,447d70a80c75dce987d9c5508038710f,"{""Q0"":""19""}","""","""","""",IwAR0hYX1_BXtAG-HKECsh4Bh-phMVLY6F4y4muTh2dMhzSAvIgccWjE4tOiM
122,1,"""",8990,survey-multi-select,42,2147127,0.0-42.0,2021-11-27 20:11:42,24.18.107.152,"Mozilla/5.0 (iPhone; CPU iPhone OS 14_8_1 like Mac OS X) AppleWebKit/605.1.15 (KHTML, like Gecko) Mobile/18H107 [FBAN/FBIOS;FBDV/iPhone12,1;FBMD/iPhone;FBSN/iOS;FBSV/14.8.1;FBSS/2;FBID/phone;FBLC/en_US;FBOP/5]",iPhone,Mozilla,,iOS,14_8_1,447d70a80c75dce987d9c5508038710f,"{""Colors"":[""DMA in Composition""]}",[0],"""","""",IwAR0hYX1_BXtAG-HKECsh4Bh-phMVLY6F4y4muTh2dMhzSAvIgccWjE4tOiM
122,1,"""",10581.000000000233,survey-text,43,2157727,0.0-43.0,2021-11-27 20:11:42,24.18.107.152,"Mozilla/5.0 (iPhone; CPU iPhone OS 14_8_1 like Mac OS X) AppleWebKit/605.1.15 (KHTML, like Gecko) Mobile/18H107 [FBAN/FBIOS;FBDV/iPhone12,1;FBMD/iPhone;FBSN/iOS;FBSV/14.8.1;FBSS/2;FBID/phone;FBLC/en_US;FBOP/5]",iPhone,Mozilla,,iOS,14_8_1,447d70a80c75dce987d9c5508038710f,"{""Q0"":"" 11""}","""","""","""",IwAR0hYX1_BXtAG-HKECsh4Bh-phMVLY6F4y4muTh2dMhzSAvIgccWjE4tOiM
122,1,"""",20532,survey-multi-select,44,2178268,0.0-44.0,2021-11-27 20:11:42,24.18.107.152,"Mozilla/5.0 (iPhone; CPU iPhone OS 14_8_1 like Mac OS X) AppleWebKit/605.1.15 (KHTML, like Gecko) Mobile/18H107 [FBAN/FBIOS;FBDV/iPhone12,1;FBMD/iPhone;FBSN/iOS;FBSV/14.8.1;FBSS/2;FBID/phone;FBLC/en_US;FBOP/5]",iPhone,Mozilla,,iOS,14_8_1,447d70a80c75dce987d9c5508038710f,"{""Colors"":[""Public institution"",""Conservatory-style professional music school (within a university)"",""Music Department within a university""]}",[0],"""","""",IwAR0hYX1_BXtAG-HKECsh4Bh-phMVLY6F4y4muTh2dMhzSAvIgccWjE4tOiM
122,1,"""",8725,survey-multi-choice,45,2187010,0.0-45.0,2021-11-27 20:11:42,24.18.107.152,"Mozilla/5.0 (iPhone; CPU iPhone OS 14_8_1 like Mac OS X) AppleWebKit/605.1.15 (KHTML, like Gecko) Mobile/18H107 [FBAN/FBIOS;FBDV/iPhone12,1;FBMD/iPhone;FBSN/iOS;FBSV/14.8.1;FBSS/2;FBID/phone;FBLC/en_US;FBOP/5]",iPhone,Mozilla,,iOS,14_8_1,447d70a80c75dce987d9c5508038710f,"{""Colors"":""Full-Time Tenured""}",[0],"""","""",IwAR0hYX1_BXtAG-HKECsh4Bh-phMVLY6F4y4muTh2dMhzSAvIgccWjE4tOiM
122,1,"""",6777,html-slider-response,46,2193800,0.0-46.0,2021-11-27 20:11:42,24.18.107.152,"Mozilla/5.0 (iPhone; CPU iPhone OS 14_8_1 like Mac OS X) AppleWebKit/605.1.15 (KHTML, like Gecko) Mobile/18H107 [FBAN/FBIOS;FBDV/iPhone12,1;FBMD/iPhone;FBSN/iOS;FBSV/14.8.1;FBSS/2;FBID/phone;FBLC/en_US;FBOP/5]",iPhone,Mozilla,,iOS,14_8_1,447d70a80c75dce987d9c5508038710f,99,"""",<p></p>,50,IwAR0hYX1_BXtAG-HKECsh4Bh-phMVLY6F4y4muTh2dMhzSAvIgccWjE4tOiM
122,1,"""",4239,html-slider-response,47,2198048,0.0-47.0,2021-11-27 20:11:42,24.18.107.152,"Mozilla/5.0 (iPhone; CPU iPhone OS 14_8_1 like Mac OS X) AppleWebKit/605.1.15 (KHTML, like Gecko) Mobile/18H107 [FBAN/FBIOS;FBDV/iPhone12,1;FBMD/iPhone;FBSN/iOS;FBSV/14.8.1;FBSS/2;FBID/phone;FBLC/en_US;FBOP/5]",iPhone,Mozilla,,iOS,14_8_1,447d70a80c75dce987d9c5508038710f,74,"""",<p></p>,50,IwAR0hYX1_BXtAG-HKECsh4Bh-phMVLY6F4y4muTh2dMhzSAvIgccWjE4tOiM
122,1,"[{""page_index"":0,""viewing_time"":3406.000000000233}]",3406.000000000233,instructions,48,2201458,0.0-48.0,2021-11-27 20:11:42,24.18.107.152,"Mozilla/5.0 (iPhone; CPU iPhone OS 14_8_1 like Mac OS X) AppleWebKit/605.1.15 (KHTML, like Gecko) Mobile/18H107 [FBAN/FBIOS;FBDV/iPhone12,1;FBMD/iPhone;FBSN/iOS;FBSV/14.8.1;FBSS/2;FBID/phone;FBLC/en_US;FBOP/5]",iPhone,Mozilla,,iOS,14_8_1,447d70a80c75dce987d9c5508038710f,"""","""","""","""",IwAR0hYX1_BXtAG-HKECsh4Bh-phMVLY6F4y4muTh2dMhzSAvIgccWjE4tOiM
122,1,"""",9152,survey-text,49,2210624,0.0-49.0,2021-11-27 20:11:42,24.18.107.152,"Mozilla/5.0 (iPhone; CPU iPhone OS 14_8_1 like Mac OS X) AppleWebKit/605.1.15 (KHTML, like Gecko) Mobile/18H107 [FBAN/FBIOS;FBDV/iPhone12,1;FBMD/iPhone;FBSN/iOS;FBSV/14.8.1;FBSS/2;FBID/phone;FBLC/en_US;FBOP/5]",iPhone,Mozilla,,iOS,14_8_1,447d70a80c75dce987d9c5508038710f,"{""Q0"":""16""}","""","""","""",IwAR0hYX1_BXtAG-HKECsh4Bh-phMVLY6F4y4muTh2dMhzSAvIgccWjE4tOiM
122,1,"""",17019,survey-multi-select,50,2227654,0.0-50.0,2021-11-27 20:11:42,24.18.107.152,"Mozilla/5.0 (iPhone; CPU iPhone OS 14_8_1 like Mac OS X) AppleWebKit/605.1.15 (KHTML, like Gecko) Mobile/18H107 [FBAN/FBIOS;FBDV/iPhone12,1;FBMD/iPhone;FBSN/iOS;FBSV/14.8.1;FBSS/2;FBID/phone;FBLC/en_US;FBOP/5]",iPhone,Mozilla,,iOS,14_8_1,447d70a80c75dce987d9c5508038710f,"{""Colors"":[""Scale-degree numbers without inflections"",""Moveable-Do (La-based minor)"",""Moveable-Do (Do-based minor)"",""Curwen or Kodaly hand symbols"",""Letter names""]}",[0],"""","""",IwAR0hYX1_BXtAG-HKECsh4Bh-phMVLY6F4y4muTh2dMhzSAvIgccWjE4tOiM
122,1,"""",32022,survey-text,51,2259689,0.0-51.0,2021-11-27 20:11:42,24.18.107.152,"Mozilla/5.0 (iPhone; CPU iPhone OS 14_8_1 like Mac OS X) AppleWebKit/605.1.15 (KHTML, like Gecko) Mobile/18H107 [FBAN/FBIOS;FBDV/iPhone12,1;FBMD/iPhone;FBSN/iOS;FBSV/14.8.1;FBSS/2;FBID/phone;FBLC/en_US;FBOP/5]",iPhone,Mozilla,,iOS,14_8_1,447d70a80c75dce987d9c5508038710f,"{""Q0"":""Many different places. Different institutions used different systems. ""}","""","""","""",IwAR0hYX1_BXtAG-HKECsh4Bh-phMVLY6F4y4muTh2dMhzSAvIgccWjE4tOiM
122,1,"""",16296,survey-multi-select,52,2275994,0.0-52.0,2021-11-27 20:11:42,24.18.107.152,"Mozilla/5.0 (iPhone; CPU iPhone OS 14_8_1 like Mac OS X) AppleWebKit/605.1.15 (KHTML, like Gecko) Mobile/18H107 [FBAN/FBIOS;FBDV/iPhone12,1;FBMD/iPhone;FBSN/iOS;FBSV/14.8.1;FBSS/2;FBID/phone;FBLC/en_US;FBOP/5]",iPhone,Mozilla,,iOS,14_8_1,447d70a80c75dce987d9c5508038710f,"{""Colors"":[""Moveable-Do (Do-based minor)""]}",[0],"""","""",IwAR0hYX1_BXtAG-HKECsh4Bh-phMVLY6F4y4muTh2dMhzSAvIgccWjE4tOiM
122,1,"""",5950,survey-multi-select,53,2281964,0.0-53.0,2021-11-27 20:11:42,24.18.107.152,"Mozilla/5.0 (iPhone; CPU iPhone OS 14_8_1 like Mac OS X) AppleWebKit/605.1.15 (KHTML, like Gecko) Mobile/18H107 [FBAN/FBIOS;FBDV/iPhone12,1;FBMD/iPhone;FBSN/iOS;FBSV/14.8.1;FBSS/2;FBID/phone;FBLC/en_US;FBOP/5]",iPhone,Mozilla,,iOS,14_8_1,447d70a80c75dce987d9c5508038710f,"{""Colors"":[""Moveable-Do (Do-based minor)""]}",[0],"""","""",IwAR0hYX1_BXtAG-HKECsh4Bh-phMVLY6F4y4muTh2dMhzSAvIgccWjE4tOiM
122,1,"""",6212,survey-text,54,2288190,0.0-54.0,2021-11-27 20:11:42,24.18.107.152,"Mozilla/5.0 (iPhone; CPU iPhone OS 14_8_1 like Mac OS X) AppleWebKit/605.1.15 (KHTML, like Gecko) Mobile/18H107 [FBAN/FBIOS;FBDV/iPhone12,1;FBMD/iPhone;FBSN/iOS;FBSV/14.8.1;FBSS/2;FBID/phone;FBLC/en_US;FBOP/5]",iPhone,Mozilla,,iOS,14_8_1,447d70a80c75dce987d9c5508038710f,"{""Q0"":""3""}","""","""","""",IwAR0hYX1_BXtAG-HKECsh4Bh-phMVLY6F4y4muTh2dMhzSAvIgccWjE4tOiM
122,1,"""",18321,survey-multi-choice,55,2306523,0.0-55.0,2021-11-27 20:11:42,24.18.107.152,"Mozilla/5.0 (iPhone; CPU iPhone OS 14_8_1 like Mac OS X) AppleWebKit/605.1.15 (KHTML, like Gecko) Mobile/18H107 [FBAN/FBIOS;FBDV/iPhone12,1;FBMD/iPhone;FBSN/iOS;FBSV/14.8.1;FBSS/2;FBID/phone;FBLC/en_US;FBOP/5]",iPhone,Mozilla,,iOS,14_8_1,447d70a80c75dce987d9c5508038710f,"{""theory_track_01"":""Yes"",""pitch_mem_02"":""No"",""score_transp_03"":""Yes""}","[0,1,2]","""","""",IwAR0hYX1_BXtAG-HKECsh4Bh-phMVLY6F4y4muTh2dMhzSAvIgccWjE4tOiM
122,1,"""",7506,survey-multi-select,56,2314046,0.0-56.0,2021-11-27 20:11:42,24.18.107.152,"Mozilla/5.0 (iPhone; CPU iPhone OS 14_8_1 like Mac OS X) AppleWebKit/605.1.15 (KHTML, like Gecko) Mobile/18H107 [FBAN/FBIOS;FBDV/iPhone12,1;FBMD/iPhone;FBSN/iOS;FBSV/14.8.1;FBSS/2;FBID/phone;FBLC/en_US;FBOP/5]",iPhone,Mozilla,,iOS,14_8_1,447d70a80c75dce987d9c5508038710f,"{""Colors"":[""Community College (2-year)""]}",[0],"""","""",IwAR0hYX1_BXtAG-HKECsh4Bh-phMVLY6F4y4muTh2dMhzSAvIgccWjE4tOiM
122,1,"""",7613,survey-text,57,2321679,0.0-57.0,2021-11-27 20:11:42,24.18.107.152,"Mozilla/5.0 (iPhone; CPU iPhone OS 14_8_1 like Mac OS X) AppleWebKit/605.1.15 (KHTML, like Gecko) Mobile/18H107 [FBAN/FBIOS;FBDV/iPhone12,1;FBMD/iPhone;FBSN/iOS;FBSV/14.8.1;FBSS/2;FBID/phone;FBLC/en_US;FBOP/5]",iPhone,Mozilla,,iOS,14_8_1,447d70a80c75dce987d9c5508038710f,"{""Q0"":""4""}","""","""","""",IwAR0hYX1_BXtAG-HKECsh4Bh-phMVLY6F4y4muTh2dMhzSAvIgccWjE4tOiM
122,1,"""",11079,survey-multi-select,58,2332771,0.0-58.0,2021-11-27 20:11:42,24.18.107.152,"Mozilla/5.0 (iPhone; CPU iPhone OS 14_8_1 like Mac OS X) AppleWebKit/605.1.15 (KHTML, like Gecko) Mobile/18H107 [FBAN/FBIOS;FBDV/iPhone12,1;FBMD/iPhone;FBSN/iOS;FBSV/14.8.1;FBSS/2;FBID/phone;FBLC/en_US;FBOP/5]",iPhone,Mozilla,,iOS,14_8_1,447d70a80c75dce987d9c5508038710f,"{""Colors"":[""Associate's degree (AA)""]}",[0],"""","""",IwAR0hYX1_BXtAG-HKECsh4Bh-phMVLY6F4y4muTh2dMhzSAvIgccWjE4tOiM
122,1,"""",8415,survey-multi-select,59,2341204,0.0-59.0,2021-11-27 20:11:42,24.18.107.152,"Mozilla/5.0 (iPhone; CPU iPhone OS 14_8_1 like Mac OS X) AppleWebKit/605.1.15 (KHTML, like Gecko) Mobile/18H107 [FBAN/FBIOS;FBDV/iPhone12,1;FBMD/iPhone;FBSN/iOS;FBSV/14.8.1;FBSS/2;FBID/phone;FBLC/en_US;FBOP/5]",iPhone,Mozilla,,iOS,14_8_1,447d70a80c75dce987d9c5508038710f,"{""Colors"":[""Full-time tenured""]}",[0],"""","""",IwAR0hYX1_BXtAG-HKECsh4Bh-phMVLY6F4y4muTh2dMhzSAvIgccWjE4tOiM
122,1,"""",7150,survey-multi-select,60,2348368,0.0-60.0,2021-11-27 20:11:42,24.18.107.152,"Mozilla/5.0 (iPhone; CPU iPhone OS 14_8_1 like Mac OS X) AppleWebKit/605.1.15 (KHTML, like Gecko) Mobile/18H107 [FBAN/FBIOS;FBDV/iPhone12,1;FBMD/iPhone;FBSN/iOS;FBSV/14.8.1;FBSS/2;FBID/phone;FBLC/en_US;FBOP/5]",iPhone,Mozilla,,iOS,14_8_1,447d70a80c75dce987d9c5508038710f,"{""Colors"":[""Graduate degree in music theory or composition""]}",[0],"""","""",IwAR0hYX1_BXtAG-HKECsh4Bh-phMVLY6F4y4muTh2dMhzSAvIgccWjE4tOiM
122,1,"""",9063,survey-text,61,2357446,0.0-61.0,2021-11-27 20:11:42,24.18.107.152,"Mozilla/5.0 (iPhone; CPU iPhone OS 14_8_1 like Mac OS X) AppleWebKit/605.1.15 (KHTML, like Gecko) Mobile/18H107 [FBAN/FBIOS;FBDV/iPhone12,1;FBMD/iPhone;FBSN/iOS;FBSV/14.8.1;FBSS/2;FBID/phone;FBLC/en_US;FBOP/5]",iPhone,Mozilla,,iOS,14_8_1,447d70a80c75dce987d9c5508038710f,"{""Q0"":""United States ""}","""","""","""",IwAR0hYX1_BXtAG-HKECsh4Bh-phMVLY6F4y4muTh2dMhzSAvIgccWjE4tOiM
122,1,"""",4304.000000000233,survey-text,62,2361757,0.0-62.0,2021-11-27 20:11:42,24.18.107.152,"Mozilla/5.0 (iPhone; CPU iPhone OS 14_8_1 like Mac OS X) AppleWebKit/605.1.15 (KHTML, like Gecko) Mobile/18H107 [FBAN/FBIOS;FBDV/iPhone12,1;FBMD/iPhone;FBSN/iOS;FBSV/14.8.1;FBSS/2;FBID/phone;FBLC/en_US;FBOP/5]",iPhone,Mozilla,,iOS,14_8_1,447d70a80c75dce987d9c5508038710f,"{""Q0"":""WA""}","""","""","""",IwAR0hYX1_BXtAG-HKECsh4Bh-phMVLY6F4y4muTh2dMhzSAvIgccWjE4tOiM
142,1,"[{""page_index"":0,""viewing_time"":13478.27500011772},{""page_index"":1,""viewing_time"":8055.024999892339},{""page_index"":2,""viewing_time"":2638.7450001202524}]",24173.2900000643,instructions,0,24193,0.0-0.0,2021-11-27 22:38:15,69.114.220.207,"Mozilla/5.0 (X11; CrOS x86_64 12239.92.0) AppleWebKit/537.36 (KHTML, like Gecko) Chrome/76.0.3809.136 Safari/537.36",WebKit,Chrome,76.0.3809.136,ChromeOS,12239.92.0,447d70a80c75dce987d9c5508038710f,,,,,IwAR3tOLLSOWnpmP7dlBcOIEMQYhh3rYtHXJihiyjtTSChn0ibScL0Vt7SsUk
138,1,"[{""page_index"":0,""viewing_time"":18096},{""page_index"":1,""viewing_time"":7915.000000000004},{""page_index"":2,""viewing_time"":1995.9999999999964}]",28008.000000000004,instructions,0,28028,0.0-0.0,2021-11-27 22:24:44,71.28.19.209,"Mozilla/5.0 (iPhone; CPU iPhone OS 15_1_1 like Mac OS X) AppleWebKit/605.1.15 (KHTML, like Gecko) Mobile/19B81 [FBAN/FBIOS;FBDV/iPhone14,3;FBMD/iPhone;FBSN/iOS;FBSV/15.1.1;FBSS/3;FBID/phone;FBLC/en_US;FBOP/5]",iPhone,Mozilla,,iOS,15_1_1,447d70a80c75dce987d9c5508038710f,"""","""",,,IwAR2ZRFWx1kEbghlKLfXuN2925SY4z_n7tGodqNctqDftumYF1dSxWYVSlRQ
138,1,"[{""page_index"":0,""viewing_time"":2138}]",2139.0000000000036,instructions,1,30176,0.0-1.0,2021-11-27 22:24:44,71.28.19.209,"Mozilla/5.0 (iPhone; CPU iPhone OS 15_1_1 like Mac OS X) AppleWebKit/605.1.15 (KHTML, like Gecko) Mobile/19B81 [FBAN/FBIOS;FBDV/iPhone14,3;FBMD/iPhone;FBSN/iOS;FBSV/15.1.1;FBSS/3;FBID/phone;FBLC/en_US;FBOP/5]",iPhone,Mozilla,,iOS,15_1_1,447d70a80c75dce987d9c5508038710f,"""","""",,,IwAR2ZRFWx1kEbghlKLfXuN2925SY4z_n7tGodqNctqDftumYF1dSxWYVSlRQ
138,1,"""",351708.00000000006,survey-likert,2,381904,0.0-2.0,2021-11-27 22:24:44,71.28.19.209,"Mozilla/5.0 (iPhone; CPU iPhone OS 15_1_1 like Mac OS X) AppleWebKit/605.1.15 (KHTML, like Gecko) Mobile/19B81 [FBAN/FBIOS;FBDV/iPhone14,3;FBMD/iPhone;FBSN/iOS;FBSV/15.1.1;FBSS/3;FBID/phone;FBLC/en_US;FBOP/5]",iPhone,Mozilla,,iOS,15_1_1,447d70a80c75dce987d9c5508038710f,"{""rp_produce_interval_05"":7,""rp_id_interval_04"":7,""ap_perceive_same_21"":0,""ap_to_rp_22"":2,""ap_name_relation_20"":0,""rp_perceive_same_07"":7,""rp_produce_abref_11"":0,""rp_produce_tonality_02"":7,""ap_ref_tonal_15"":0,""rp_lose_13"":7,""ap_id_interval_18"":0,""rp_remember_group_12"":4,""rp_name_relation_06"":7,""ap_ref_tonal_03"":0,""ap_name_abref_25"":7,""ap_ref_tonal_16"":7,""ap_remember_group_27"":3,""ap_produce_interval_19"":0,""ap_id_440_23"":2,""rp_to_ap_14"":5,""ap_produce_440_24"":2,""rp_id_44_08"":7,""rp_name_abref_10"":0,""rp_ref_tonal_01"":7,""ap_lose_28"":7,""ap_produce_abref_26"":7,""ap_produce_tonality_17"":0,""rp_produce_440_09"":5}","[4,3,20,21,19,6,10,1,14,12,17,11,5,2,24,15,26,18,22,13,23,7,9,0,27,25,16,8]",,,IwAR2ZRFWx1kEbghlKLfXuN2925SY4z_n7tGodqNctqDftumYF1dSxWYVSlRQ
138,1,"""",20084.00000000006,survey-text,3,402007,0.0-3.0,2021-11-27 22:24:44,71.28.19.209,"Mozilla/5.0 (iPhone; CPU iPhone OS 15_1_1 like Mac OS X) AppleWebKit/605.1.15 (KHTML, like Gecko) Mobile/19B81 [FBAN/FBIOS;FBDV/iPhone14,3;FBMD/iPhone;FBSN/iOS;FBSV/15.1.1;FBSS/3;FBID/phone;FBLC/en_US;FBOP/5]",iPhone,Mozilla,,iOS,15_1_1,447d70a80c75dce987d9c5508038710f,"{""Q0"":""Not applicable""}","""",,,IwAR2ZRFWx1kEbghlKLfXuN2925SY4z_n7tGodqNctqDftumYF1dSxWYVSlRQ
138,1,"""",5545,survey-text,4,407558,0.0-4.0,2021-11-27 22:24:44,71.28.19.209,"Mozilla/5.0 (iPhone; CPU iPhone OS 15_1_1 like Mac OS X) AppleWebKit/605.1.15 (KHTML, like Gecko) Mobile/19B81 [FBAN/FBIOS;FBDV/iPhone14,3;FBMD/iPhone;FBSN/iOS;FBSV/15.1.1;FBSS/3;FBID/phone;FBLC/en_US;FBOP/5]",iPhone,Mozilla,,iOS,15_1_1,447d70a80c75dce987d9c5508038710f,"{""Q0"":""Not applicable""}","""",,,IwAR2ZRFWx1kEbghlKLfXuN2925SY4z_n7tGodqNctqDftumYF1dSxWYVSlRQ
138,1,"[{""page_index"":0,""viewing_time"":2835.999999999942}]",2836.999999999942,instructions,5,410403,0.0-5.0,2021-11-27 22:24:44,71.28.19.209,"Mozilla/5.0 (iPhone; CPU iPhone OS 15_1_1 like Mac OS X) AppleWebKit/605.1.15 (KHTML, like Gecko) Mobile/19B81 [FBAN/FBIOS;FBDV/iPhone14,3;FBMD/iPhone;FBSN/iOS;FBSV/15.1.1;FBSS/3;FBID/phone;FBLC/en_US;FBOP/5]",iPhone,Mozilla,,iOS,15_1_1,447d70a80c75dce987d9c5508038710f,"""","""",,,IwAR2ZRFWx1kEbghlKLfXuN2925SY4z_n7tGodqNctqDftumYF1dSxWYVSlRQ
138,1,"""",95341,survey-likert,6,505753,0.0-6.0,2021-11-27 22:24:44,71.28.19.209,"Mozilla/5.0 (iPhone; CPU iPhone OS 15_1_1 like Mac OS X) AppleWebKit/605.1.15 (KHTML, like Gecko) Mobile/19B81 [FBAN/FBIOS;FBDV/iPhone14,3;FBMD/iPhone;FBSN/iOS;FBSV/15.1.1;FBSS/3;FBID/phone;FBLC/en_US;FBOP/5]",iPhone,Mozilla,,iOS,15_1_1,447d70a80c75dce987d9c5508038710f,"{""ap_trained_ap_11"":0,""ap_override_10"":4,""rp_trained_ap_4"":3,""ap_tonedeaf_12"":0,""rp_better_others_7"":7,""rp_impaired_2"":0,""rp_override_3"":5,""ap_people_all_8"":0,""rp_tonedeaf_5"":1,""ap_impaired_9"":4,""ap_better_others_14"":7,""rp_normal_6"":0,""re_people_al_1"":4,""ap_normal_13"":0}","[10,9,3,11,6,1,2,7,4,8,13,5,0,12]",,,IwAR2ZRFWx1kEbghlKLfXuN2925SY4z_n7tGodqNctqDftumYF1dSxWYVSlRQ
138,1,"[{""page_index"":0,""viewing_time"":5148.000000000058}]",5149,instructions,7,510909,0.0-7.0,2021-11-27 22:24:44,71.28.19.209,"Mozilla/5.0 (iPhone; CPU iPhone OS 15_1_1 like Mac OS X) AppleWebKit/605.1.15 (KHTML, like Gecko) Mobile/19B81 [FBAN/FBIOS;FBDV/iPhone14,3;FBMD/iPhone;FBSN/iOS;FBSV/15.1.1;FBSS/3;FBID/phone;FBLC/en_US;FBOP/5]",iPhone,Mozilla,,iOS,15_1_1,447d70a80c75dce987d9c5508038710f,"""","""",,,IwAR2ZRFWx1kEbghlKLfXuN2925SY4z_n7tGodqNctqDftumYF1dSxWYVSlRQ
138,1,"[{""page_index"":0,""viewing_time"":1434}]",1434,instructions,8,512345,0.0-8.0,2021-11-27 22:24:44,71.28.19.209,"Mozilla/5.0 (iPhone; CPU iPhone OS 15_1_1 like Mac OS X) AppleWebKit/605.1.15 (KHTML, like Gecko) Mobile/19B81 [FBAN/FBIOS;FBDV/iPhone14,3;FBMD/iPhone;FBSN/iOS;FBSV/15.1.1;FBSS/3;FBID/phone;FBLC/en_US;FBOP/5]",iPhone,Mozilla,,iOS,15_1_1,447d70a80c75dce987d9c5508038710f,"""","""",,,IwAR2ZRFWx1kEbghlKLfXuN2925SY4z_n7tGodqNctqDftumYF1dSxWYVSlRQ
143,1,"[{""page_index"":0,""viewing_time"":35624.19999999972},{""page_index"":1,""viewing_time"":2768.3000000002794},{""page_index"":2,""viewing_time"":2981.5}]",41374.5,instructions,0,41387,0.0-0.0,2021-11-27 22:40:15,72.234.56.19,"Mozilla/5.0 (Windows NT 10.0; Win64; x64) AppleWebKit/537.36 (KHTML, like Gecko) Chrome/96.0.4664.45 Safari/537.36",WebKit,Chrome,96.0.4664.45,Windows,10.0,447d70a80c75dce987d9c5508038710f,,,,,IwAR1c_PQdwtFT_5_cpwvgkJsUOQYgrYzOVqJpT2vMpc0YhV56ZCA96cvHY60
149,1,"[{""page_index"":0,""viewing_time"":66441},{""page_index"":1,""viewing_time"":2527},{""page_index"":2,""viewing_time"":2771}]",71742,instructions,0,71768,0.0-0.0,2021-11-28 00:08:26,99.100.255.43,"Mozilla/5.0 (iPhone; CPU iPhone OS 15_1 like Mac OS X) AppleWebKit/605.1.15 (KHTML, like Gecko) Mobile/19B74 [FBAN/FBIOS;FBDV/iPhone8,4;FBMD/iPhone;FBSN/iOS;FBSV/15.1;FBSS/2;FBID/phone;FBLC/en_US;FBOP/5]",iPhone,Mozilla,,iOS,15_1,447d70a80c75dce987d9c5508038710f,"""","""",,,IwAR2z1WhGhogSHNtLFVS7_d_VOCv73N-XHdMDKxX-1H1xqUYN7RyKduVi6mw
149,1,"[{""page_index"":0,""viewing_time"":11708}]",11708,instructions,1,83499,0.0-1.0,2021-11-28 00:08:26,99.100.255.43,"Mozilla/5.0 (iPhone; CPU iPhone OS 15_1 like Mac OS X) AppleWebKit/605.1.15 (KHTML, like Gecko) Mobile/19B74 [FBAN/FBIOS;FBDV/iPhone8,4;FBMD/iPhone;FBSN/iOS;FBSV/15.1;FBSS/2;FBID/phone;FBLC/en_US;FBOP/5]",iPhone,Mozilla,,iOS,15_1,447d70a80c75dce987d9c5508038710f,"""","""",,,IwAR2z1WhGhogSHNtLFVS7_d_VOCv73N-XHdMDKxX-1H1xqUYN7RyKduVi6mw
149,1,"""",195069,survey-likert,2,278590,0.0-2.0,2021-11-28 00:08:26,99.100.255.43,"Mozilla/5.0 (iPhone; CPU iPhone OS 15_1 like Mac OS X) AppleWebKit/605.1.15 (KHTML, like Gecko) Mobile/19B74 [FBAN/FBIOS;FBDV/iPhone8,4;FBMD/iPhone;FBSN/iOS;FBSV/15.1;FBSS/2;FBID/phone;FBLC/en_US;FBOP/5]",iPhone,Mozilla,,iOS,15_1,447d70a80c75dce987d9c5508038710f,"{""ap_produce_tonality_17"":0,""rp_perceive_same_07"":0,""ap_lose_28"":0,""rp_to_ap_14"":0,""rp_remember_group_12"":0,""rp_produce_abref_11"":0,""rp_name_relation_06"":3,""ap_produce_abref_26"":7,""ap_produce_440_24"":0,""ap_perceive_same_21"":0,""rp_lose_13"":7,""ap_id_440_23"":7,""rp_produce_interval_05"":3,""ap_name_abref_25"":7,""rp_id_44_08"":7,""ap_to_rp_22"":0,""ap_ref_tonal_15"":0,""ap_remember_group_27"":0,""ap_ref_tonal_03"":0,""ap_produce_interval_19"":0,""rp_name_abref_10"":0,""ap_name_relation_20"":0,""rp_id_interval_04"":0,""rp_produce_440_09"":7,""rp_ref_tonal_01"":7,""ap_ref_tonal_16"":7,""rp_produce_tonality_02"":7,""ap_id_interval_18"":0}","[16,6,27,13,11,10,5,25,23,20,12,22,4,24,7,21,14,26,2,18,9,19,3,8,0,15,1,17]",,,IwAR2z1WhGhogSHNtLFVS7_d_VOCv73N-XHdMDKxX-1H1xqUYN7RyKduVi6mw
149,1,"""",83185,survey-text,3,361788,0.0-3.0,2021-11-28 00:08:26,99.100.255.43,"Mozilla/5.0 (iPhone; CPU iPhone OS 15_1 like Mac OS X) AppleWebKit/605.1.15 (KHTML, like Gecko) Mobile/19B74 [FBAN/FBIOS;FBDV/iPhone8,4;FBMD/iPhone;FBSN/iOS;FBSV/15.1;FBSS/2;FBID/phone;FBLC/en_US;FBOP/5]",iPhone,Mozilla,,iOS,15_1,447d70a80c75dce987d9c5508038710f,"{""Q0"":""Relative pitch may be knowing the physical sensation or function used to sing a particular pitch.""}","""",,,IwAR2z1WhGhogSHNtLFVS7_d_VOCv73N-XHdMDKxX-1H1xqUYN7RyKduVi6mw
149,1,"""",47489,survey-text,4,409279,0.0-4.0,2021-11-28 00:08:26,99.100.255.43,"Mozilla/5.0 (iPhone; CPU iPhone OS 15_1 like Mac OS X) AppleWebKit/605.1.15 (KHTML, like Gecko) Mobile/19B74 [FBAN/FBIOS;FBDV/iPhone8,4;FBMD/iPhone;FBSN/iOS;FBSV/15.1;FBSS/2;FBID/phone;FBLC/en_US;FBOP/5]",iPhone,Mozilla,,iOS,15_1,447d70a80c75dce987d9c5508038710f,"{""Q0"":""Absolute pitch is the ability to identify a pitch with no reference.""}","""",,,IwAR2z1WhGhogSHNtLFVS7_d_VOCv73N-XHdMDKxX-1H1xqUYN7RyKduVi6mw
149,1,"[{""page_index"":0,""viewing_time"":6580}]",6580,instructions,5,415863,0.0-5.0,2021-11-28 00:08:26,99.100.255.43,"Mozilla/5.0 (iPhone; CPU iPhone OS 15_1 like Mac OS X) AppleWebKit/605.1.15 (KHTML, like Gecko) Mobile/19B74 [FBAN/FBIOS;FBDV/iPhone8,4;FBMD/iPhone;FBSN/iOS;FBSV/15.1;FBSS/2;FBID/phone;FBLC/en_US;FBOP/5]",iPhone,Mozilla,,iOS,15_1,447d70a80c75dce987d9c5508038710f,"""","""",,,IwAR2z1WhGhogSHNtLFVS7_d_VOCv73N-XHdMDKxX-1H1xqUYN7RyKduVi6mw
149,1,"""",85818,survey-likert,6,501689,0.0-6.0,2021-11-28 00:08:26,99.100.255.43,"Mozilla/5.0 (iPhone; CPU iPhone OS 15_1 like Mac OS X) AppleWebKit/605.1.15 (KHTML, like Gecko) Mobile/19B74 [FBAN/FBIOS;FBDV/iPhone8,4;FBMD/iPhone;FBSN/iOS;FBSV/15.1;FBSS/2;FBID/phone;FBLC/en_US;FBOP/5]",iPhone,Mozilla,,iOS,15_1,447d70a80c75dce987d9c5508038710f,"{""ap_people_all_8"":0,""ap_override_10"":3,""ap_better_others_14"":7,""rp_impaired_2"":3,""rp_normal_6"":0,""ap_normal_13"":0,""rp_trained_ap_4"":5,""ap_tonedeaf_12"":0,""re_people_al_1"":5,""ap_impaired_9"":0,""rp_better_others_7"":7,""rp_tonedeaf_5"":0,""ap_trained_ap_11"":0,""rp_override_3"":3}","[7,9,13,1,5,12,3,11,0,8,6,4,10,2]",,,IwAR2z1WhGhogSHNtLFVS7_d_VOCv73N-XHdMDKxX-1H1xqUYN7RyKduVi6mw
149,1,"[{""page_index"":0,""viewing_time"":4746.000000000058}]",4746.000000000058,instructions,7,506445,0.0-7.0,2021-11-28 00:08:26,99.100.255.43,"Mozilla/5.0 (iPhone; CPU iPhone OS 15_1 like Mac OS X) AppleWebKit/605.1.15 (KHTML, like Gecko) Mobile/19B74 [FBAN/FBIOS;FBDV/iPhone8,4;FBMD/iPhone;FBSN/iOS;FBSV/15.1;FBSS/2;FBID/phone;FBLC/en_US;FBOP/5]",iPhone,Mozilla,,iOS,15_1,447d70a80c75dce987d9c5508038710f,"""","""",,,IwAR2z1WhGhogSHNtLFVS7_d_VOCv73N-XHdMDKxX-1H1xqUYN7RyKduVi6mw
149,1,"[{""page_index"":0,""viewing_time"":3219.999999999942}]",3219.999999999942,instructions,8,509667,0.0-8.0,2021-11-28 00:08:26,99.100.255.43,"Mozilla/5.0 (iPhone; CPU iPhone OS 15_1 like Mac OS X) AppleWebKit/605.1.15 (KHTML, like Gecko) Mobile/19B74 [FBAN/FBIOS;FBDV/iPhone8,4;FBMD/iPhone;FBSN/iOS;FBSV/15.1;FBSS/2;FBID/phone;FBLC/en_US;FBOP/5]",iPhone,Mozilla,,iOS,15_1,447d70a80c75dce987d9c5508038710f,"""","""",,,IwAR2z1WhGhogSHNtLFVS7_d_VOCv73N-XHdMDKxX-1H1xqUYN7RyKduVi6mw
148,1,"[{""page_index"":0,""viewing_time"":22031},{""page_index"":1,""viewing_time"":6499},{""page_index"":2,""viewing_time"":2032}]",30563,instructions,0,30572,0.0-0.0,2021-11-27 23:51:13,68.175.146.30,Mozilla/5.0 (Macintosh; Intel Mac OS X 10.15; rv:94.0) Gecko/20100101 Firefox/94.0,Macintosh,Firefox,94.0,OS X,10.15,447d70a80c75dce987d9c5508038710f,,,,,IwAR0205--GPsCRLxuNJb1Hx1o2XdiP8ipGfbmQRaI_vihwI1uQyselgu63_0
137,1,"[{""page_index"":0,""viewing_time"":88076},{""page_index"":1,""viewing_time"":2062.0000000000146},{""page_index"":2,""viewing_time"":4972.999999999985}]",95112,instructions,0,95125,0.0-0.0,2021-11-27 22:23:26,71.179.232.123,"Mozilla/5.0 (iPhone; CPU iPhone OS 15_1 like Mac OS X) AppleWebKit/605.1.15 (KHTML, like Gecko) Mobile/19B74 [FBAN/FBIOS;FBDV/iPhone12,8;FBMD/iPhone;FBSN/iOS;FBSV/15.1;FBSS/2;FBID/phone;FBLC/en_US;FBOP/5]",iPhone,Mozilla,,iOS,15_1,447d70a80c75dce987d9c5508038710f,,,,,IwAR3GMbLvotEBNX1Nuh2x-Dnwzvx2LGNP3uQ97tbUoPeTZ_zWhFLwSJbTuCQ
155,1,"[{""page_index"":0,""viewing_time"":65149},{""page_index"":1,""viewing_time"":2495},{""page_index"":2,""viewing_time"":3033}]",70678,instructions,0,70686,0.0-0.0,2021-11-28 01:16:28,107.77.235.64,"Mozilla/5.0 (iPhone; CPU iPhone OS 15_0 like Mac OS X) AppleWebKit/605.1.15 (KHTML, like Gecko) Mobile/19A346 [FBAN/FBIOS;FBDV/iPhone12,1;FBMD/iPhone;FBSN/iOS;FBSV/15.0;FBSS/2;FBID/phone;FBLC/en_US;FBOP/5]",iPhone,Mozilla,,iOS,15_0,447d70a80c75dce987d9c5508038710f,,,,,IwAR1VjckWvKCAUr025JlEIFr7jw9IzOaRh7JP5ks39jA6l7u6tAmoh-wiUxY
152,1,"[{""page_index"":0,""viewing_time"":36218.39999985695},{""page_index"":1,""viewing_time"":9532.100000143051},{""page_index"":2,""viewing_time"":2571.699999809265}]",48323,instructions,0,48338,0.0-0.0,2021-11-28 00:12:32,69.244.209.172,"Mozilla/5.0 (Windows NT 10.0; Win64; x64) AppleWebKit/537.36 (KHTML, like Gecko) Chrome/96.0.4664.45 Safari/537.36",WebKit,Chrome,96.0.4664.45,Windows,10.0,447d70a80c75dce987d9c5508038710f,"""","""","""","""",IwAR2R_iuP_SHp9GykSu_zqN0gkBraOyWoutQmawHVs5Sy0ecBrGmRQD4ZKcI
152,1,"[{""page_index"":0,""viewing_time"":1827.3000001907349}]",1827.4000000953674,instructions,1,50168,0.0-1.0,2021-11-28 00:12:32,69.244.209.172,"Mozilla/5.0 (Windows NT 10.0; Win64; x64) AppleWebKit/537.36 (KHTML, like Gecko) Chrome/96.0.4664.45 Safari/537.36",WebKit,Chrome,96.0.4664.45,Windows,10.0,447d70a80c75dce987d9c5508038710f,"""","""","""","""",IwAR2R_iuP_SHp9GykSu_zqN0gkBraOyWoutQmawHVs5Sy0ecBrGmRQD4ZKcI
152,1,"""",277266.30000019073,survey-likert,2,327438,0.0-2.0,2021-11-28 00:12:32,69.244.209.172,"Mozilla/5.0 (Windows NT 10.0; Win64; x64) AppleWebKit/537.36 (KHTML, like Gecko) Chrome/96.0.4664.45 Safari/537.36",WebKit,Chrome,96.0.4664.45,Windows,10.0,447d70a80c75dce987d9c5508038710f,"{""rp_lose_13"":3,""ap_produce_440_24"":0,""ap_ref_tonal_16"":2,""rp_produce_440_09"":4,""rp_produce_interval_05"":4,""rp_perceive_same_07"":6,""ap_produce_interval_19"":0,""rp_produce_tonality_02"":6,""rp_remember_group_12"":1,""ap_id_interval_18"":1,""ap_id_440_23"":0,""ap_produce_tonality_17"":0,""rp_id_interval_04"":4,""ap_ref_tonal_03"":0,""ap_perceive_same_21"":0,""ap_ref_tonal_15"":0,""rp_name_relation_06"":5,""ap_name_abref_25"":6,""rp_ref_tonal_01"":6,""rp_name_abref_10"":0,""ap_remember_group_27"":7,""ap_produce_abref_26"":6,""rp_to_ap_14"":1,""rp_produce_abref_11"":0,""ap_lose_28"":3,""rp_id_44_08"":5,""ap_to_rp_22"":0,""ap_name_relation_20"":0}","[12,23,15,8,4,6,18,1,11,17,22,16,3,2,20,14,5,24,0,9,26,25,13,10,27,7,21,19]","""","""",IwAR2R_iuP_SHp9GykSu_zqN0gkBraOyWoutQmawHVs5Sy0ecBrGmRQD4ZKcI
152,1,"""",41690,survey-text,3,369136,0.0-3.0,2021-11-28 00:12:32,69.244.209.172,"Mozilla/5.0 (Windows NT 10.0; Win64; x64) AppleWebKit/537.36 (KHTML, like Gecko) Chrome/96.0.4664.45 Safari/537.36",WebKit,Chrome,96.0.4664.45,Windows,10.0,447d70a80c75dce987d9c5508038710f,"{""Q0"":""the ability to perceive and produce scale-degree hierarchies relative to a tonic pitch.""}","""","""","""",IwAR2R_iuP_SHp9GykSu_zqN0gkBraOyWoutQmawHVs5Sy0ecBrGmRQD4ZKcI
152,1,"""",136144.09999990463,survey-text,4,505281,0.0-4.0,2021-11-28 00:12:32,69.244.209.172,"Mozilla/5.0 (Windows NT 10.0; Win64; x64) AppleWebKit/537.36 (KHTML, like Gecko) Chrome/96.0.4664.45 Safari/537.36",WebKit,Chrome,96.0.4664.45,Windows,10.0,447d70a80c75dce987d9c5508038710f,"{""Q0"":""the ability to produce or identify specific pitches or pitch classes without the use of a reference tone. People may possess this to varying degrees (i.e., they may be limited by range, instrument, text, or other musical features).""}","""","""","""",IwAR2R_iuP_SHp9GykSu_zqN0gkBraOyWoutQmawHVs5Sy0ecBrGmRQD4ZKcI
152,1,"[{""page_index"":0,""viewing_time"":2014.7999999523163}]",2015.2000000476837,instructions,5,507298,0.0-5.0,2021-11-28 00:12:32,69.244.209.172,"Mozilla/5.0 (Windows NT 10.0; Win64; x64) AppleWebKit/537.36 (KHTML, like Gecko) Chrome/96.0.4664.45 Safari/537.36",WebKit,Chrome,96.0.4664.45,Windows,10.0,447d70a80c75dce987d9c5508038710f,"""","""","""","""",IwAR2R_iuP_SHp9GykSu_zqN0gkBraOyWoutQmawHVs5Sy0ecBrGmRQD4ZKcI
152,1,"""",130899.40000009537,survey-likert,6,638200,0.0-6.0,2021-11-28 00:12:32,69.244.209.172,"Mozilla/5.0 (Windows NT 10.0; Win64; x64) AppleWebKit/537.36 (KHTML, like Gecko) Chrome/96.0.4664.45 Safari/537.36",WebKit,Chrome,96.0.4664.45,Windows,10.0,447d70a80c75dce987d9c5508038710f,"{""ap_normal_13"":0,""ap_override_10"":2,""ap_better_others_14"":6,""ap_trained_ap_11"":1,""rp_trained_ap_4"":1,""rp_override_3"":5,""ap_impaired_9"":3,""ap_people_all_8"":0,""ap_tonedeaf_12"":0,""rp_impaired_2"":0,""rp_tonedeaf_5"":1,""rp_better_others_7"":6,""re_people_al_1"":1,""rp_normal_6"":1}","[12,9,13,10,3,2,8,7,11,1,4,6,0,5]","""","""",IwAR2R_iuP_SHp9GykSu_zqN0gkBraOyWoutQmawHVs5Sy0ecBrGmRQD4ZKcI
152,1,"[{""page_index"":0,""viewing_time"":1937.2000000476837}]",1937.4000000953674,instructions,7,640139,0.0-7.0,2021-11-28 00:12:32,69.244.209.172,"Mozilla/5.0 (Windows NT 10.0; Win64; x64) AppleWebKit/537.36 (KHTML, like Gecko) Chrome/96.0.4664.45 Safari/537.36",WebKit,Chrome,96.0.4664.45,Windows,10.0,447d70a80c75dce987d9c5508038710f,"""","""","""","""",IwAR2R_iuP_SHp9GykSu_zqN0gkBraOyWoutQmawHVs5Sy0ecBrGmRQD4ZKcI
152,1,"[{""page_index"":0,""viewing_time"":1740.9000000953674}]",1741.1000001430511,instructions,8,641881,0.0-8.0,2021-11-28 00:12:32,69.244.209.172,"Mozilla/5.0 (Windows NT 10.0; Win64; x64) AppleWebKit/537.36 (KHTML, like Gecko) Chrome/96.0.4664.45 Safari/537.36",WebKit,Chrome,96.0.4664.45,Windows,10.0,447d70a80c75dce987d9c5508038710f,"""","""","""","""",IwAR2R_iuP_SHp9GykSu_zqN0gkBraOyWoutQmawHVs5Sy0ecBrGmRQD4ZKcI
152,1,"""",8574.099999904633,html-slider-response,9,650456,0.0-9.0,2021-11-28 00:12:32,69.244.209.172,"Mozilla/5.0 (Windows NT 10.0; Win64; x64) AppleWebKit/537.36 (KHTML, like Gecko) Chrome/96.0.4664.45 Safari/537.36",WebKit,Chrome,96.0.4664.45,Windows,10.0,447d70a80c75dce987d9c5508038710f,100,"""",<p></p>,50,IwAR2R_iuP_SHp9GykSu_zqN0gkBraOyWoutQmawHVs5Sy0ecBrGmRQD4ZKcI
152,1,"""",6000.600000143051,html-slider-response,10,656458,0.0-10.0,2021-11-28 00:12:32,69.244.209.172,"Mozilla/5.0 (Windows NT 10.0; Win64; x64) AppleWebKit/537.36 (KHTML, like Gecko) Chrome/96.0.4664.45 Safari/537.36",WebKit,Chrome,96.0.4664.45,Windows,10.0,447d70a80c75dce987d9c5508038710f,0,"""",<p></p>,50,IwAR2R_iuP_SHp9GykSu_zqN0gkBraOyWoutQmawHVs5Sy0ecBrGmRQD4ZKcI
152,1,"""",14814.700000047684,survey-likert,11,671274,0.0-11.0,2021-11-28 00:12:32,69.244.209.172,"Mozilla/5.0 (Windows NT 10.0; Win64; x64) AppleWebKit/537.36 (KHTML, like Gecko) Chrome/96.0.4664.45 Safari/537.36",WebKit,Chrome,96.0.4664.45,Windows,10.0,447d70a80c75dce987d9c5508038710f,"{""inst_priority_ap_01"":0,""inst_priority_rp_02"":4,""you_priority_ap_03"":0,""you_priority_rp_04"":4}","[0,1,2,3]","""","""",IwAR2R_iuP_SHp9GykSu_zqN0gkBraOyWoutQmawHVs5Sy0ecBrGmRQD4ZKcI
160,1,"[{""page_index"":0,""viewing_time"":45725},{""page_index"":1,""viewing_time"":17696.799999952316},{""page_index"":2,""viewing_time"":2838.899999976158}]",66262.79999995232,instructions,0,66479,0.0-0.0,2021-11-28 03:35:31,38.99.108.160,"Mozilla/5.0 (Linux; Android 11; SM-G970U Build/RP1A.200720.012; wv) AppleWebKit/537.36 (KHTML, like Gecko) Version/4.0 Chrome/96.0.4664.45 Mobile Safari/537.36 [FB_IAB/FB4A;FBAV/345.0.0.34.118;]",WebKit,Chrome,96.0.4664.45,AndroidOS,11,447d70a80c75dce987d9c5508038710f,"""","""",,,
160,1,"[{""page_index"":0,""viewing_time"":1237.2000000476837}]",1238.1000000238419,instructions,1,67725,0.0-1.0,2021-11-28 03:35:31,38.99.108.160,"Mozilla/5.0 (Linux; Android 11; SM-G970U Build/RP1A.200720.012; wv) AppleWebKit/537.36 (KHTML, like Gecko) Version/4.0 Chrome/96.0.4664.45 Mobile Safari/537.36 [FB_IAB/FB4A;FBAV/345.0.0.34.118;]",WebKit,Chrome,96.0.4664.45,AndroidOS,11,447d70a80c75dce987d9c5508038710f,"""","""",,,
160,1,"""",174229.29999995232,survey-likert,2,241975,0.0-2.0,2021-11-28 03:35:31,38.99.108.160,"Mozilla/5.0 (Linux; Android 11; SM-G970U Build/RP1A.200720.012; wv) AppleWebKit/537.36 (KHTML, like Gecko) Version/4.0 Chrome/96.0.4664.45 Mobile Safari/537.36 [FB_IAB/FB4A;FBAV/345.0.0.34.118;]",WebKit,Chrome,96.0.4664.45,AndroidOS,11,447d70a80c75dce987d9c5508038710f,"{""ap_produce_tonality_17"":0,""rp_to_ap_14"":0,""rp_name_abref_10"":0,""ap_name_relation_20"":7,""ap_produce_abref_26"":5,""ap_perceive_same_21"":0,""rp_name_relation_06"":4,""rp_remember_group_12"":2,""rp_perceive_same_07"":6,""rp_produce_interval_05"":5,""ap_lose_28"":1,""ap_produce_440_24"":3,""rp_produce_tonality_02"":6,""ap_ref_tonal_16"":5,""ap_id_interval_18"":1,""ap_to_rp_22"":1,""ap_produce_interval_19"":2,""rp_produce_440_09"":5,""rp_id_interval_04"":6,""rp_produce_abref_11"":0,""rp_lose_13"":1,""ap_id_440_23"":0,""ap_remember_group_27"":0,""rp_ref_tonal_01"":7,""ap_ref_tonal_03"":0,""rp_id_44_08"":1,""ap_ref_tonal_15"":0,""ap_name_abref_25"":7}","[16,13,9,19,25,20,5,11,6,4,27,23,1,15,17,21,18,8,3,10,12,22,26,0,2,7,14,24]",,,
160,1,"""",91505.10000002384,survey-text,3,333489,0.0-3.0,2021-11-28 03:35:31,38.99.108.160,"Mozilla/5.0 (Linux; Android 11; SM-G970U Build/RP1A.200720.012; wv) AppleWebKit/537.36 (KHTML, like Gecko) Version/4.0 Chrome/96.0.4664.45 Mobile Safari/537.36 [FB_IAB/FB4A;FBAV/345.0.0.34.118;]",WebKit,Chrome,96.0.4664.45,AndroidOS,11,447d70a80c75dce987d9c5508038710f,"{""Q0"":""A sense of relationship between pitches within a tonal system""}","""",,,
160,1,"""",35221.700000047684,survey-text,4,368720,0.0-4.0,2021-11-28 03:35:31,38.99.108.160,"Mozilla/5.0 (Linux; Android 11; SM-G970U Build/RP1A.200720.012; wv) AppleWebKit/537.36 (KHTML, like Gecko) Version/4.0 Chrome/96.0.4664.45 Mobile Safari/537.36 [FB_IAB/FB4A;FBAV/345.0.0.34.118;]",WebKit,Chrome,96.0.4664.45,AndroidOS,11,447d70a80c75dce987d9c5508038710f,"{""Q0"":""A sense of pitch class that exists even without a reference pitch""}","""",,,
160,1,"[{""page_index"":0,""viewing_time"":1962.3000000715256}]",1963.5,instructions,5,370687,0.0-5.0,2021-11-28 03:35:31,38.99.108.160,"Mozilla/5.0 (Linux; Android 11; SM-G970U Build/RP1A.200720.012; wv) AppleWebKit/537.36 (KHTML, like Gecko) Version/4.0 Chrome/96.0.4664.45 Mobile Safari/537.36 [FB_IAB/FB4A;FBAV/345.0.0.34.118;]",WebKit,Chrome,96.0.4664.45,AndroidOS,11,447d70a80c75dce987d9c5508038710f,"""","""",,,
160,1,"""",74685.89999997616,survey-likert,6,445382,0.0-6.0,2021-11-28 03:35:31,38.99.108.160,"Mozilla/5.0 (Linux; Android 11; SM-G970U Build/RP1A.200720.012; wv) AppleWebKit/537.36 (KHTML, like Gecko) Version/4.0 Chrome/96.0.4664.45 Mobile Safari/537.36 [FB_IAB/FB4A;FBAV/345.0.0.34.118;]",WebKit,Chrome,96.0.4664.45,AndroidOS,11,447d70a80c75dce987d9c5508038710f,"{""rp_override_3"":2,""ap_trained_ap_11"":3,""rp_normal_6"":6,""ap_impaired_9"":2,""rp_impaired_2"":1,""ap_tonedeaf_12"":0,""ap_override_10"":4,""re_people_al_1"":7,""ap_normal_13"":0,""rp_tonedeaf_5"":7,""rp_trained_ap_4"":6,""rp_better_others_7"":7,""ap_better_others_14"":3,""ap_people_all_8"":0}","[2,10,5,8,1,11,9,0,12,4,3,6,13,7]",,,
160,1,"[{""page_index"":0,""viewing_time"":4242.299999952316}]",4242.899999976158,instructions,7,449629,0.0-7.0,2021-11-28 03:35:31,38.99.108.160,"Mozilla/5.0 (Linux; Android 11; SM-G970U Build/RP1A.200720.012; wv) AppleWebKit/537.36 (KHTML, like Gecko) Version/4.0 Chrome/96.0.4664.45 Mobile Safari/537.36 [FB_IAB/FB4A;FBAV/345.0.0.34.118;]",WebKit,Chrome,96.0.4664.45,AndroidOS,11,447d70a80c75dce987d9c5508038710f,"""","""",,,
160,1,"[{""page_index"":0,""viewing_time"":1937.0999999046326}]",1937.8999999761581,instructions,8,451569,0.0-8.0,2021-11-28 03:35:31,38.99.108.160,"Mozilla/5.0 (Linux; Android 11; SM-G970U Build/RP1A.200720.012; wv) AppleWebKit/537.36 (KHTML, like Gecko) Version/4.0 Chrome/96.0.4664.45 Mobile Safari/537.36 [FB_IAB/FB4A;FBAV/345.0.0.34.118;]",WebKit,Chrome,96.0.4664.45,AndroidOS,11,447d70a80c75dce987d9c5508038710f,"""","""",,,
161,1,"[{""page_index"":0,""viewing_time"":37255},{""page_index"":1,""viewing_time"":3275},{""page_index"":2,""viewing_time"":3750}]",44281,instructions,0,44297,0.0-0.0,2021-11-28 03:40:40,174.59.232.2,"Mozilla/5.0 (iPhone; CPU iPhone OS 14_8_1 like Mac OS X) AppleWebKit/605.1.15 (KHTML, like Gecko) Mobile/18H107 [FBAN/FBIOS;FBDV/iPhone12,1;FBMD/iPhone;FBSN/iOS;FBSV/14.8.1;FBSS/2;FBID/phone;FBLC/en_US;FBOP/5]",iPhone,Mozilla,,iOS,14_8_1,447d70a80c75dce987d9c5508038710f,,,,,IwAR1e4_E5KvUF9vIkSpn4wt6JJ8iKeKBLaTDWlr__25LwomMtScRQEbV4NNs
20,1,"[{""page_index"":0,""viewing_time"":14314.599999904633},{""page_index"":1,""viewing_time"":1637.5},{""page_index"":2,""viewing_time"":2649.7000000476837}]",18602.700000047684,instructions,0,18625,0.0-0.0,2021-11-22 16:30:22,173.61.176.206,"Mozilla/5.0 (Macintosh; Intel Mac OS X 10_15_7) AppleWebKit/537.36 (KHTML, like Gecko) Chrome/95.0.4638.69 Safari/537.36",Macintosh,Chrome,95.0.4638.69,OS X,10_15_7,447d70a80c75dce987d9c5508038710f,,,,,
196,1,"[{""page_index"":0,""viewing_time"":7574},{""page_index"":1,""viewing_time"":5587},{""page_index"":2,""viewing_time"":1700}]",14861,instructions,0,14865,0.0-0.0,2021-11-29 14:34:29,98.229.63.241,Mozilla/5.0 (Windows NT 10.0; Win64; x64; rv:94.0) Gecko/20100101 Firefox/94.0,,Firefox,94.0,Windows,10.0,447d70a80c75dce987d9c5508038710f,,,,,
163,1,"[{""page_index"":0,""viewing_time"":23310.100000023842},{""page_index"":1,""viewing_time"":5777.700000047684},{""page_index"":2,""viewing_time"":7074}]",36163.300000071526,instructions,0,36189,0.0-0.0,2021-11-28 04:29:21,69.138.93.212,"Mozilla/5.0 (Linux; Android 11; SM-G781U Build/RP1A.200720.012; wv) AppleWebKit/537.36 (KHTML, like Gecko) Version/4.0 Chrome/96.0.4664.45 Mobile Safari/537.36 [FB_IAB/FB4A;FBAV/345.0.0.34.118;]",WebKit,Chrome,96.0.4664.45,AndroidOS,11,447d70a80c75dce987d9c5508038710f,"""","""",,,
163,1,"[{""page_index"":0,""viewing_time"":3669.7999999523163}]",3670.399999976158,instructions,1,39866,0.0-1.0,2021-11-28 04:29:21,69.138.93.212,"Mozilla/5.0 (Linux; Android 11; SM-G781U Build/RP1A.200720.012; wv) AppleWebKit/537.36 (KHTML, like Gecko) Version/4.0 Chrome/96.0.4664.45 Mobile Safari/537.36 [FB_IAB/FB4A;FBAV/345.0.0.34.118;]",WebKit,Chrome,96.0.4664.45,AndroidOS,11,447d70a80c75dce987d9c5508038710f,"""","""",,,
163,1,"""",184942.60000002384,survey-likert,2,224830,0.0-2.0,2021-11-28 04:29:21,69.138.93.212,"Mozilla/5.0 (Linux; Android 11; SM-G781U Build/RP1A.200720.012; wv) AppleWebKit/537.36 (KHTML, like Gecko) Version/4.0 Chrome/96.0.4664.45 Mobile Safari/537.36 [FB_IAB/FB4A;FBAV/345.0.0.34.118;]",WebKit,Chrome,96.0.4664.45,AndroidOS,11,447d70a80c75dce987d9c5508038710f,"{""rp_perceive_same_07"":1,""rp_id_44_08"":7,""rp_ref_tonal_01"":5,""ap_name_relation_20"":1,""rp_name_abref_10"":0,""ap_perceive_same_21"":0,""ap_produce_tonality_17"":6,""rp_produce_abref_11"":0,""rp_id_interval_04"":5,""ap_produce_interval_19"":2,""rp_lose_13"":3,""ap_lose_28"":4,""ap_remember_group_27"":4,""ap_id_interval_18"":2,""ap_ref_tonal_16"":7,""ap_to_rp_22"":2,""ap_ref_tonal_03"":0,""ap_produce_abref_26"":6,""rp_name_relation_06"":4,""rp_produce_440_09"":4,""rp_to_ap_14"":4,""ap_ref_tonal_15"":2,""rp_remember_group_12"":5,""ap_produce_440_24"":2,""ap_id_440_23"":2,""rp_produce_tonality_02"":5,""ap_name_abref_25"":7,""rp_produce_interval_05"":4}","[6,7,0,19,9,20,16,10,3,18,12,27,26,17,15,21,2,25,5,8,13,14,11,23,22,1,24,4]",,,
163,1,"""",42752.60000002384,survey-text,3,267592,0.0-3.0,2021-11-28 04:29:21,69.138.93.212,"Mozilla/5.0 (Linux; Android 11; SM-G781U Build/RP1A.200720.012; wv) AppleWebKit/537.36 (KHTML, like Gecko) Version/4.0 Chrome/96.0.4664.45 Mobile Safari/537.36 [FB_IAB/FB4A;FBAV/345.0.0.34.118;]",WebKit,Chrome,96.0.4664.45,AndroidOS,11,447d70a80c75dce987d9c5508038710f,"{""Q0"":""Being able to relate pitches to each other, and likely good tonal memory. ""}","""",,,
163,1,"""",58011.60000002384,survey-text,4,325609,0.0-4.0,2021-11-28 04:29:21,69.138.93.212,"Mozilla/5.0 (Linux; Android 11; SM-G781U Build/RP1A.200720.012; wv) AppleWebKit/537.36 (KHTML, like Gecko) Version/4.0 Chrome/96.0.4664.45 Mobile Safari/537.36 [FB_IAB/FB4A;FBAV/345.0.0.34.118;]",WebKit,Chrome,96.0.4664.45,AndroidOS,11,447d70a80c75dce987d9c5508038710f,"{""Q0"":""The ability  to hear and label keys and pitches without a reference pitch. ""}","""",,,
163,1,"[{""page_index"":0,""viewing_time"":4479.5}]",4480.200000047684,instructions,5,330093,0.0-5.0,2021-11-28 04:29:21,69.138.93.212,"Mozilla/5.0 (Linux; Android 11; SM-G781U Build/RP1A.200720.012; wv) AppleWebKit/537.36 (KHTML, like Gecko) Version/4.0 Chrome/96.0.4664.45 Mobile Safari/537.36 [FB_IAB/FB4A;FBAV/345.0.0.34.118;]",WebKit,Chrome,96.0.4664.45,AndroidOS,11,447d70a80c75dce987d9c5508038710f,"""","""",,,
163,1,"""",68810.79999995232,survey-likert,6,398915,0.0-6.0,2021-11-28 04:29:21,69.138.93.212,"Mozilla/5.0 (Linux; Android 11; SM-G781U Build/RP1A.200720.012; wv) AppleWebKit/537.36 (KHTML, like Gecko) Version/4.0 Chrome/96.0.4664.45 Mobile Safari/537.36 [FB_IAB/FB4A;FBAV/345.0.0.34.118;]",WebKit,Chrome,96.0.4664.45,AndroidOS,11,447d70a80c75dce987d9c5508038710f,"{""rp_trained_ap_4"":4,""ap_people_all_8"":0,""ap_trained_ap_11"":0,""rp_normal_6"":0,""ap_better_others_14"":7,""rp_tonedeaf_5"":4,""rp_override_3"":2,""ap_impaired_9"":0,""rp_impaired_2"":0,""ap_override_10"":4,""rp_better_others_7"":6,""ap_tonedeaf_12"":0,""re_people_al_1"":5,""ap_normal_13"":0}","[3,7,10,5,13,4,2,8,1,9,6,11,0,12]",,,
163,1,"[{""page_index"":0,""viewing_time"":6204}]",6204.399999976158,instructions,7,405122,0.0-7.0,2021-11-28 04:29:21,69.138.93.212,"Mozilla/5.0 (Linux; Android 11; SM-G781U Build/RP1A.200720.012; wv) AppleWebKit/537.36 (KHTML, like Gecko) Version/4.0 Chrome/96.0.4664.45 Mobile Safari/537.36 [FB_IAB/FB4A;FBAV/345.0.0.34.118;]",WebKit,Chrome,96.0.4664.45,AndroidOS,11,447d70a80c75dce987d9c5508038710f,"""","""",,,
163,1,"[{""page_index"":0,""viewing_time"":5532.200000047684}]",5532.600000023842,instructions,8,410656,0.0-8.0,2021-11-28 04:29:21,69.138.93.212,"Mozilla/5.0 (Linux; Android 11; SM-G781U Build/RP1A.200720.012; wv) AppleWebKit/537.36 (KHTML, like Gecko) Version/4.0 Chrome/96.0.4664.45 Mobile Safari/537.36 [FB_IAB/FB4A;FBAV/345.0.0.34.118;]",WebKit,Chrome,96.0.4664.45,AndroidOS,11,447d70a80c75dce987d9c5508038710f,"""","""",,,
168,1,"[{""page_index"":0,""viewing_time"":41890.60000002384},{""page_index"":1,""viewing_time"":2323.7999999523163},{""page_index"":2,""viewing_time"":4488.5}]",48704.799999952316,instructions,0,48936,0.0-0.0,2021-11-28 13:20:17,149.76.151.9,"Mozilla/5.0 (Linux; Android 11; SM-G973U Build/RP1A.200720.012; wv) AppleWebKit/537.36 (KHTML, like Gecko) Version/4.0 Chrome/96.0.4664.45 Mobile Safari/537.36 [FB_IAB/FB4A;FBAV/345.0.0.34.118;]",WebKit,Chrome,96.0.4664.45,AndroidOS,11,447d70a80c75dce987d9c5508038710f,,,,,
176,1,"[{""page_index"":0,""viewing_time"":45664.39999997616},{""page_index"":1,""viewing_time"":7136.899999976158},{""page_index"":2,""viewing_time"":1922.2000000476837}]",54725.799999952316,instructions,0,54733,0.0-0.0,2021-11-28 18:27:56,71.224.43.156,"Mozilla/5.0 (Linux; Android 11; SM-G975U Build/RP1A.200720.012; wv) AppleWebKit/537.36 (KHTML, like Gecko) Version/4.0 Chrome/96.0.4664.45 Mobile Safari/537.36 [FB_IAB/FB4A;FBAV/345.0.0.34.118;]",WebKit,Chrome,96.0.4664.45,AndroidOS,11,447d70a80c75dce987d9c5508038710f,"""","""",,,
176,1,"[{""page_index"":0,""viewing_time"":1937.6000000238419}]",1939,instructions,1,56681,0.0-1.0,2021-11-28 18:27:56,71.224.43.156,"Mozilla/5.0 (Linux; Android 11; SM-G975U Build/RP1A.200720.012; wv) AppleWebKit/537.36 (KHTML, like Gecko) Version/4.0 Chrome/96.0.4664.45 Mobile Safari/537.36 [FB_IAB/FB4A;FBAV/345.0.0.34.118;]",WebKit,Chrome,96.0.4664.45,AndroidOS,11,447d70a80c75dce987d9c5508038710f,"""","""",,,
176,1,"""",291276.89999997616,survey-likert,2,347996,0.0-2.0,2021-11-28 18:27:56,71.224.43.156,"Mozilla/5.0 (Linux; Android 11; SM-G975U Build/RP1A.200720.012; wv) AppleWebKit/537.36 (KHTML, like Gecko) Version/4.0 Chrome/96.0.4664.45 Mobile Safari/537.36 [FB_IAB/FB4A;FBAV/345.0.0.34.118;]",WebKit,Chrome,96.0.4664.45,AndroidOS,11,447d70a80c75dce987d9c5508038710f,"{""ap_name_abref_25"":5,""ap_id_440_23"":7,""rp_produce_interval_05"":0,""ap_ref_tonal_03"":6,""rp_to_ap_14"":0,""rp_lose_13"":7,""ap_name_relation_20"":6,""rp_name_relation_06"":5,""ap_produce_440_24"":6,""ap_lose_28"":0,""ap_produce_tonality_17"":0,""ap_produce_abref_26"":6,""ap_remember_group_27"":0,""rp_remember_group_12"":0,""ap_perceive_same_21"":4,""ap_ref_tonal_16"":6,""rp_produce_440_09"":0,""ap_produce_interval_19"":0,""ap_to_rp_22"":1,""rp_perceive_same_07"":6,""rp_name_abref_10"":5,""ap_ref_tonal_15"":0,""rp_ref_tonal_01"":0,""rp_produce_abref_11"":2,""rp_produce_tonality_02"":0,""rp_id_interval_04"":3,""rp_id_44_08"":5,""ap_id_interval_18"":2}","[24,22,4,2,13,12,19,5,23,27,16,25,26,11,20,15,8,18,21,6,9,14,0,10,1,3,7,17]",,,
176,1,"""",14907.699999928474,survey-text,3,362919,0.0-3.0,2021-11-28 18:27:56,71.224.43.156,"Mozilla/5.0 (Linux; Android 11; SM-G975U Build/RP1A.200720.012; wv) AppleWebKit/537.36 (KHTML, like Gecko) Version/4.0 Chrome/96.0.4664.45 Mobile Safari/537.36 [FB_IAB/FB4A;FBAV/345.0.0.34.118;]",WebKit,Chrome,96.0.4664.45,AndroidOS,11,447d70a80c75dce987d9c5508038710f,"{""Q0"":""NA""}","""",,,
176,1,"""",6452.899999976158,survey-text,4,369388,0.0-4.0,2021-11-28 18:27:56,71.224.43.156,"Mozilla/5.0 (Linux; Android 11; SM-G975U Build/RP1A.200720.012; wv) AppleWebKit/537.36 (KHTML, like Gecko) Version/4.0 Chrome/96.0.4664.45 Mobile Safari/537.36 [FB_IAB/FB4A;FBAV/345.0.0.34.118;]",WebKit,Chrome,96.0.4664.45,AndroidOS,11,447d70a80c75dce987d9c5508038710f,"{""Q0"":""NA""}","""",,,
176,1,"[{""page_index"":0,""viewing_time"":2373.4000000953674}]",2374.8000000715256,instructions,5,371769,0.0-5.0,2021-11-28 18:27:56,71.224.43.156,"Mozilla/5.0 (Linux; Android 11; SM-G975U Build/RP1A.200720.012; wv) AppleWebKit/537.36 (KHTML, like Gecko) Version/4.0 Chrome/96.0.4664.45 Mobile Safari/537.36 [FB_IAB/FB4A;FBAV/345.0.0.34.118;]",WebKit,Chrome,96.0.4664.45,AndroidOS,11,447d70a80c75dce987d9c5508038710f,"""","""",,,
176,1,"""",78194.20000004768,survey-likert,6,449986,0.0-6.0,2021-11-28 18:27:56,71.224.43.156,"Mozilla/5.0 (Linux; Android 11; SM-G975U Build/RP1A.200720.012; wv) AppleWebKit/537.36 (KHTML, like Gecko) Version/4.0 Chrome/96.0.4664.45 Mobile Safari/537.36 [FB_IAB/FB4A;FBAV/345.0.0.34.118;]",WebKit,Chrome,96.0.4664.45,AndroidOS,11,447d70a80c75dce987d9c5508038710f,"{""ap_override_10"":0,""ap_better_others_14"":1,""rp_normal_6"":0,""re_people_al_1"":0,""ap_tonedeaf_12"":0,""rp_override_3"":0,""ap_people_all_8"":0,""rp_impaired_2"":0,""ap_normal_13"":0,""rp_trained_ap_4"":0,""ap_trained_ap_11"":0,""ap_impaired_9"":0,""rp_better_others_7"":7,""rp_tonedeaf_5"":0}","[9,13,5,0,11,2,7,1,12,3,10,8,6,4]",,,
176,1,"[{""page_index"":0,""viewing_time"":4318.600000023842}]",4319.700000047684,instructions,7,454311,0.0-7.0,2021-11-28 18:27:56,71.224.43.156,"Mozilla/5.0 (Linux; Android 11; SM-G975U Build/RP1A.200720.012; wv) AppleWebKit/537.36 (KHTML, like Gecko) Version/4.0 Chrome/96.0.4664.45 Mobile Safari/537.36 [FB_IAB/FB4A;FBAV/345.0.0.34.118;]",WebKit,Chrome,96.0.4664.45,AndroidOS,11,447d70a80c75dce987d9c5508038710f,"""","""",,,
176,1,"[{""page_index"":0,""viewing_time"":2008.7000000476837}]",2009.6000000238419,instructions,8,456322,0.0-8.0,2021-11-28 18:27:56,71.224.43.156,"Mozilla/5.0 (Linux; Android 11; SM-G975U Build/RP1A.200720.012; wv) AppleWebKit/537.36 (KHTML, like Gecko) Version/4.0 Chrome/96.0.4664.45 Mobile Safari/537.36 [FB_IAB/FB4A;FBAV/345.0.0.34.118;]",WebKit,Chrome,96.0.4664.45,AndroidOS,11,447d70a80c75dce987d9c5508038710f,"""","""",,,
166,1,"[{""page_index"":0,""viewing_time"":142652},{""page_index"":1,""viewing_time"":3839},{""page_index"":2,""viewing_time"":2522},{""page_index"":1,""viewing_time"":13712},{""page_index"":2,""viewing_time"":5151}]",167877.00000000003,instructions,0,167885,0.0-0.0,2021-11-28 11:43:19,108.14.63.234,"Mozilla/5.0 (iPhone; CPU iPhone OS 14_4 like Mac OS X) AppleWebKit/605.1.15 (KHTML, like Gecko) Version/14.0.3 Mobile/15E148 Safari/604.1",iPhone,Safari,14.0.3,iOS,14_4,447d70a80c75dce987d9c5508038710f,"""","""","""","""",IwAR3ClGMfSgjTEpg9FzTdVjR7gOYcZ07sryqxjDKgwQgSWuZ0vbek9BtGayk
166,1,"[{""page_index"":0,""viewing_time"":3044}]",3044,instructions,1,170941,0.0-1.0,2021-11-28 11:43:19,108.14.63.234,"Mozilla/5.0 (iPhone; CPU iPhone OS 14_4 like Mac OS X) AppleWebKit/605.1.15 (KHTML, like Gecko) Version/14.0.3 Mobile/15E148 Safari/604.1",iPhone,Safari,14.0.3,iOS,14_4,447d70a80c75dce987d9c5508038710f,"""","""","""","""",IwAR3ClGMfSgjTEpg9FzTdVjR7gOYcZ07sryqxjDKgwQgSWuZ0vbek9BtGayk
166,1,"""",329130,survey-likert,2,500090,0.0-2.0,2021-11-28 11:43:19,108.14.63.234,"Mozilla/5.0 (iPhone; CPU iPhone OS 14_4 like Mac OS X) AppleWebKit/605.1.15 (KHTML, like Gecko) Version/14.0.3 Mobile/15E148 Safari/604.1",iPhone,Safari,14.0.3,iOS,14_4,447d70a80c75dce987d9c5508038710f,"{""rp_produce_abref_11"":1,""ap_name_abref_25"":4,""rp_name_relation_06"":4,""ap_ref_tonal_03"":2,""ap_produce_440_24"":5,""ap_id_440_23"":5,""rp_to_ap_14"":5,""rp_id_interval_04"":5,""ap_perceive_same_21"":1,""ap_id_interval_18"":1,""ap_produce_abref_26"":5,""rp_id_44_08"":4,""rp_produce_interval_05"":4,""ap_ref_tonal_16"":4,""ap_to_rp_22"":2,""rp_remember_group_12"":4,""rp_perceive_same_07"":4,""rp_name_abref_10"":2,""rp_produce_tonality_02"":5,""rp_lose_13"":6,""ap_produce_interval_19"":4,""ap_lose_28"":6,""ap_produce_tonality_17"":1,""ap_name_relation_20"":0,""ap_remember_group_27"":4,""rp_ref_tonal_01"":5,""rp_produce_440_09"":2,""ap_ref_tonal_15"":0}","[10,24,5,2,23,22,13,3,20,17,25,7,4,15,21,11,6,9,1,12,18,27,16,19,26,0,8,14]","""","""",IwAR3ClGMfSgjTEpg9FzTdVjR7gOYcZ07sryqxjDKgwQgSWuZ0vbek9BtGayk
166,1,"""",80065,survey-text,3,580172,0.0-3.0,2021-11-28 11:43:19,108.14.63.234,"Mozilla/5.0 (iPhone; CPU iPhone OS 14_4 like Mac OS X) AppleWebKit/605.1.15 (KHTML, like Gecko) Version/14.0.3 Mobile/15E148 Safari/604.1",iPhone,Safari,14.0.3,iOS,14_4,447d70a80c75dce987d9c5508038710f,"{""Q0"":""The ability to produce and label pitches in relation to a reference point (audiated or given). ""}","""","""","""",IwAR3ClGMfSgjTEpg9FzTdVjR7gOYcZ07sryqxjDKgwQgSWuZ0vbek9BtGayk
