"","run_id","condition","view_history","rt","trial_type","trial_index","time_elapsed","internal_node_id","response","question_order","stimulus","slider_start","recorded_at","user_agent","device","browser","browser_version","platform","platform_version","source_code_version","fbclid"
"1","1011","1","[{""page_index"":0,""viewing_time"":6569.599999997765},{""page_index"":1,""viewing_time"":28619.20000000298},{""page_index"":2,""viewing_time"":2226.099999997765}]","37416.199999999255","instructions","0","37425","0.0-0.0","""","""","""","""","2021-12-02 13:59:00","Mozilla/5.0 (Macintosh; Intel Mac OS X 10_15_7) AppleWebKit/537.36 (KHTML, like Gecko) Chrome/96.0.4664.55 Safari/537.36","Macintosh","Chrome","96.0.4664.55","OS X","10_15_7","447d70a80c75dce987d9c5508038710f",""
"2","1011","1","[{""page_index"":0,""viewing_time"":1770.5999999977648}]","1770.800000000745","instructions","1","39203","0.0-1.0","""","""","""","""","2021-12-02 13:59:00","Mozilla/5.0 (Macintosh; Intel Mac OS X 10_15_7) AppleWebKit/537.36 (KHTML, like Gecko) Chrome/96.0.4664.55 Safari/537.36","Macintosh","Chrome","96.0.4664.55","OS X","10_15_7","447d70a80c75dce987d9c5508038710f",""
"3","1011","1","""","306835.5","survey-likert","2","346055","0.0-2.0","{""rp_remember_group_12"":1,""rp_name_abref_10"":0,""ap_ref_tonal_03"":0,""rp_perceive_same_07"":6,""rp_produce_abref_11"":0,""rp_ref_tonal_01"":6,""ap_produce_interval_19"":0,""ap_id_440_23"":0,""rp_name_relation_06"":6,""ap_ref_tonal_16"":6,""ap_name_relation_20"":0,""ap_to_rp_22"":0,""ap_produce_tonality_17"":0,""ap_remember_group_27"":0,""rp_to_ap_14"":0,""rp_produce_tonality_02"":6,""rp_id_interval_04"":0,""ap_ref_tonal_15"":0,""ap_produce_abref_26"":6,""ap_id_interval_18"":0,""ap_produce_440_24"":3,""rp_lose_13"":4,""ap_perceive_same_21"":0,""ap_name_abref_25"":6,""rp_produce_interval_05"":0,""rp_produce_440_09"":5,""ap_lose_28"":7,""rp_id_44_08"":6}","[11,9,2,6,10,0,18,22,5,15,19,21,16,26,13,1,3,14,25,17,23,12,20,24,4,8,27,7]","""","""","2021-12-02 13:59:00","Mozilla/5.0 (Macintosh; Intel Mac OS X 10_15_7) AppleWebKit/537.36 (KHTML, like Gecko) Chrome/96.0.4664.55 Safari/537.36","Macintosh","Chrome","96.0.4664.55","OS X","10_15_7","447d70a80c75dce987d9c5508038710f",""
"4","1011","1","""","50566.89999999851","survey-text","3","396649","0.0-3.0","{""Q0"":""The only thing I might add is that relative pitch is a skill that can be acquired over time and with practice.""}","""","""","""","2021-12-02 13:59:00","Mozilla/5.0 (Macintosh; Intel Mac OS X 10_15_7) AppleWebKit/537.36 (KHTML, like Gecko) Chrome/96.0.4664.55 Safari/537.36","Macintosh","Chrome","96.0.4664.55","OS X","10_15_7","447d70a80c75dce987d9c5508038710f",""
"5","1011","1","""","12021.800000000745","survey-text","4","408677","0.0-4.0","{""Q0"":""Not Applicable""}","""","""","""","2021-12-02 13:59:00","Mozilla/5.0 (Macintosh; Intel Mac OS X 10_15_7) AppleWebKit/537.36 (KHTML, like Gecko) Chrome/96.0.4664.55 Safari/537.36","Macintosh","Chrome","96.0.4664.55","OS X","10_15_7","447d70a80c75dce987d9c5508038710f",""
"6","1011","1","[{""page_index"":0,""viewing_time"":2330.800000000745}]","2331","instructions","5","411018","0.0-5.0","""","""","""","""","2021-12-02 13:59:00","Mozilla/5.0 (Macintosh; Intel Mac OS X 10_15_7) AppleWebKit/537.36 (KHTML, like Gecko) Chrome/96.0.4664.55 Safari/537.36","Macintosh","Chrome","96.0.4664.55","OS X","10_15_7","447d70a80c75dce987d9c5508038710f",""
"7","1011","1","""","153071.90000000224","survey-likert","6","564098","0.0-6.0","{""ap_people_all_8"":0,""ap_normal_13"":2,""rp_override_3"":6,""rp_impaired_2"":0,""ap_impaired_9"":5,""ap_better_others_14"":6,""ap_tonedeaf_12"":0,""ap_trained_ap_11"":2,""re_people_al_1"":1,""rp_tonedeaf_5"":4,""rp_normal_6"":4,""rp_trained_ap_4"":5,""ap_override_10"":6,""rp_better_others_7"":6}","[7,12,2,1,8,13,11,10,0,4,5,3,9,6]","""","""","2021-12-02 13:59:00","Mozilla/5.0 (Macintosh; Intel Mac OS X 10_15_7) AppleWebKit/537.36 (KHTML, like Gecko) Chrome/96.0.4664.55 Safari/537.36","Macintosh","Chrome","96.0.4664.55","OS X","10_15_7","447d70a80c75dce987d9c5508038710f",""
"8","1011","1","[{""page_index"":0,""viewing_time"":3602.60000000149}]","3602.800000000745","instructions","7","567704","0.0-7.0","""","""","""","""","2021-12-02 13:59:00","Mozilla/5.0 (Macintosh; Intel Mac OS X 10_15_7) AppleWebKit/537.36 (KHTML, like Gecko) Chrome/96.0.4664.55 Safari/537.36","Macintosh","Chrome","96.0.4664.55","OS X","10_15_7","447d70a80c75dce987d9c5508038710f",""
"9","1011","1","[{""page_index"":0,""viewing_time"":1884.6000000014901}]","1884.9000000022352","instructions","8","569590","0.0-8.0","""","""","""","""","2021-12-02 13:59:00","Mozilla/5.0 (Macintosh; Intel Mac OS X 10_15_7) AppleWebKit/537.36 (KHTML, like Gecko) Chrome/96.0.4664.55 Safari/537.36","Macintosh","Chrome","96.0.4664.55","OS X","10_15_7","447d70a80c75dce987d9c5508038710f",""
"10","1011","1","""","15402.400000002235","html-slider-response","9","584998","0.0-9.0","100","""","<p></p>","50","2021-12-02 13:59:00","Mozilla/5.0 (Macintosh; Intel Mac OS X 10_15_7) AppleWebKit/537.36 (KHTML, like Gecko) Chrome/96.0.4664.55 Safari/537.36","Macintosh","Chrome","96.0.4664.55","OS X","10_15_7","447d70a80c75dce987d9c5508038710f",""
"11","1011","1","""","4715.199999999255","html-slider-response","10","589716","0.0-10.0","0","""","<p></p>","50","2021-12-02 13:59:00","Mozilla/5.0 (Macintosh; Intel Mac OS X 10_15_7) AppleWebKit/537.36 (KHTML, like Gecko) Chrome/96.0.4664.55 Safari/537.36","Macintosh","Chrome","96.0.4664.55","OS X","10_15_7","447d70a80c75dce987d9c5508038710f",""
"12","1011","1","""","14452.20000000298","survey-likert","11","604172","0.0-11.0","{""inst_priority_ap_01"":0,""inst_priority_rp_02"":4,""you_priority_ap_03"":0,""you_priority_rp_04"":4}","[0,1,2,3]","""","""","2021-12-02 13:59:00","Mozilla/5.0 (Macintosh; Intel Mac OS X 10_15_7) AppleWebKit/537.36 (KHTML, like Gecko) Chrome/96.0.4664.55 Safari/537.36","Macintosh","Chrome","96.0.4664.55","OS X","10_15_7","447d70a80c75dce987d9c5508038710f",""
"13","1011","1","""","57534.29999999702","survey-text","12","661716","0.0-12.0","{""Q0"":""Given a reference note or chord, students are asked to identify a given scale degree using a solfege syllable.""}","""","""","""","2021-12-02 13:59:00","Mozilla/5.0 (Macintosh; Intel Mac OS X 10_15_7) AppleWebKit/537.36 (KHTML, like Gecko) Chrome/96.0.4664.55 Safari/537.36","Macintosh","Chrome","96.0.4664.55","OS X","10_15_7","447d70a80c75dce987d9c5508038710f",""
"14","1011","1","""","25473.5","survey-likert","13","687197","0.0-13.0","{""use_skill_freq_01"":3,""easy_teach_02"":6,""easy_to_learn_03"":5,""helps_relative_04"":6,""reps_relative_05"":6}","[0,1,2,3,4]","""","""","2021-12-02 13:59:00","Mozilla/5.0 (Macintosh; Intel Mac OS X 10_15_7) AppleWebKit/537.36 (KHTML, like Gecko) Chrome/96.0.4664.55 Safari/537.36","Macintosh","Chrome","96.0.4664.55","OS X","10_15_7","447d70a80c75dce987d9c5508038710f",""
"15","1011","1","""","82812.69999999925","survey-text","14","770016","0.0-14.0","{""Q0"":""I write solfege syllables on the board and point to them in a random sequence, asking students to sing each scale degree after I point to it.""}","""","""","""","2021-12-02 13:59:00","Mozilla/5.0 (Macintosh; Intel Mac OS X 10_15_7) AppleWebKit/537.36 (KHTML, like Gecko) Chrome/96.0.4664.55 Safari/537.36","Macintosh","Chrome","96.0.4664.55","OS X","10_15_7","447d70a80c75dce987d9c5508038710f",""
"16","1011","1","""","18100.89999999851","survey-likert","15","788124","0.0-15.0","{""use_skill_freq_01"":4,""easy_teach_02"":6,""easy_to_learn_03"":5,""helps_relative_04"":6,""reps_relative_05"":6}","[0,1,2,3,4]","""","""","2021-12-02 13:59:00","Mozilla/5.0 (Macintosh; Intel Mac OS X 10_15_7) AppleWebKit/537.36 (KHTML, like Gecko) Chrome/96.0.4664.55 Safari/537.36","Macintosh","Chrome","96.0.4664.55","OS X","10_15_7","447d70a80c75dce987d9c5508038710f",""
"17","1011","1","""","109079.5","survey-text","16","897210","0.0-16.0","{""Q0"":""During melodic dictation exercises I ask students to recognize notes as scale degrees, and *then* to interpret those scale degrees as notes on the staff in the given key.""}","""","""","""","2021-12-02 13:59:00","Mozilla/5.0 (Macintosh; Intel Mac OS X 10_15_7) AppleWebKit/537.36 (KHTML, like Gecko) Chrome/96.0.4664.55 Safari/537.36","Macintosh","Chrome","96.0.4664.55","OS X","10_15_7","447d70a80c75dce987d9c5508038710f",""
"18","1011","1","""","12524.800000000745","survey-likert","17","909745","0.0-17.0","{""use_skill_freq_01"":6,""easy_teach_02"":6,""easy_to_learn_03"":5,""helps_relative_04"":6,""reps_relative_05"":6}","[0,1,2,3,4]","""","""","2021-12-02 13:59:00","Mozilla/5.0 (Macintosh; Intel Mac OS X 10_15_7) AppleWebKit/537.36 (KHTML, like Gecko) Chrome/96.0.4664.55 Safari/537.36","Macintosh","Chrome","96.0.4664.55","OS X","10_15_7","447d70a80c75dce987d9c5508038710f",""
"19","1011","1","""","152083.80000000075","survey-text","18","1061836","0.0-18.0","","","","","","","","","","","","",""
"20","fa\"" going to \""mi.\"" This tension exists regardless of what key we happen to be working in.""""}""","""","""","""","2021-12-02 13:59:00","199.91.180.215","Mozilla/5.0 (Macintosh; Intel Mac OS X 10_15_7) AppleWebKit/537.36 (KHTML, like Gecko) Chrome/96.0.4664.55 Safari/537.36","Macintosh","Chrome","96.0.4664.55","OS X","10_15_7","447d70a80c75dce987d9c5508038710f","","","","","","","",""
"21","1011","1","""","13245.10000000149","survey-likert","19","1075088","0.0-19.0","{""use_skill_freq_01"":6,""easy_teach_02"":6,""easy_to_learn_03"":5,""helps_relative_04"":6,""reps_relative_05"":6}","[0,1,2,3,4]","""","""","2021-12-02 13:59:00","Mozilla/5.0 (Macintosh; Intel Mac OS X 10_15_7) AppleWebKit/537.36 (KHTML, like Gecko) Chrome/96.0.4664.55 Safari/537.36","Macintosh","Chrome","96.0.4664.55","OS X","10_15_7","447d70a80c75dce987d9c5508038710f",""
"22","1011","1","""","133294.30000000075","survey-text","20","1208390","0.0-20.0","","","","","","","","","","","","",""
"23","do\"" at random"," preferring not to play the starting note at the piano. Students are then asked to establish a sense of tonic in relation to the aurally-given \""do.\"" Only *then* do we attempt singing the melody. In other words"," I don't care what key they actually sing in; I only care that they sing the right scale degrees at the right time.""""}""","""","""","""","2021-12-02 13:59:00","199.91.180.215","Mozilla/5.0 (Macintosh; Intel Mac OS X 10_15_7) AppleWebKit/537.36 (KHTML, like Gecko) Chrome/96.0.4664.55 Safari/537.36","Macintosh","Chrome","96.0.4664.55","OS X","447d70a80c75dce987d9c5508038710f","","","","","","",""
"24","1011","1","""","12915","survey-likert","21","1221316","0.0-21.0","{""use_skill_freq_01"":6,""easy_teach_02"":5,""easy_to_learn_03"":5,""helps_relative_04"":6,""reps_relative_05"":6}","[0,1,2,3,4]","""","""","2021-12-02 13:59:00","Mozilla/5.0 (Macintosh; Intel Mac OS X 10_15_7) AppleWebKit/537.36 (KHTML, like Gecko) Chrome/96.0.4664.55 Safari/537.36","Macintosh","Chrome","96.0.4664.55","OS X","10_15_7","447d70a80c75dce987d9c5508038710f",""
"25","1011","1","[{""page_index"":0,""viewing_time"":1886.5}]","1886.699999999255","instructions","22","1223206","0.0-22.0","""","""","""","""","2021-12-02 13:59:00","Mozilla/5.0 (Macintosh; Intel Mac OS X 10_15_7) AppleWebKit/537.36 (KHTML, like Gecko) Chrome/96.0.4664.55 Safari/537.36","Macintosh","Chrome","96.0.4664.55","OS X","10_15_7","447d70a80c75dce987d9c5508038710f",""
"26","1011","1","""","38754.099999997765","survey-text","23","1261967","0.0-23.0","","","","","","","","","","","","",""
"27","middle\"" C.""""}""","""","""","""","2021-12-02 13:59:00","199.91.180.215","Mozilla/5.0 (Macintosh; Intel Mac OS X 10_15_7) AppleWebKit/537.36 (KHTML, like Gecko) Chrome/96.0.4664.55 Safari/537.36","Macintosh","Chrome","96.0.4664.55","OS X","10_15_7","447d70a80c75dce987d9c5508038710f","","","","","","","",""
"28","1011","1","""","25225.10000000149","survey-likert","24","1287195","0.0-24.0","{""teach_freq_ap_01"":0,""easy_teach_02"":1,""eash_learn_03"":0,""foster_ap_04"":6,""represent_ap_05"":6}","[0,1,2,3,4]","""","""","2021-12-02 13:59:00","Mozilla/5.0 (Macintosh; Intel Mac OS X 10_15_7) AppleWebKit/537.36 (KHTML, like Gecko) Chrome/96.0.4664.55 Safari/537.36","Macintosh","Chrome","96.0.4664.55","OS X","10_15_7","447d70a80c75dce987d9c5508038710f",""
"29","1011","1","""","31374.10000000149","survey-text","25","1318579","0.0-25.0","{""Q0"":""I play a melody at the piano without telling students what key it is in. They are asked to notate it in the correct key.""}","""","""","""","2021-12-02 13:59:00","Mozilla/5.0 (Macintosh; Intel Mac OS X 10_15_7) AppleWebKit/537.36 (KHTML, like Gecko) Chrome/96.0.4664.55 Safari/537.36","Macintosh","Chrome","96.0.4664.55","OS X","10_15_7","447d70a80c75dce987d9c5508038710f",""
"30","1011","1","""","20022.800000000745","survey-likert","26","1338614","0.0-26.0","{""teach_freq_ap_01"":0,""easy_teach_02"":8,""eash_learn_03"":8,""foster_ap_04"":6,""represent_ap_05"":6}","[0,1,2,3,4]","""","""","2021-12-02 13:59:00","Mozilla/5.0 (Macintosh; Intel Mac OS X 10_15_7) AppleWebKit/537.36 (KHTML, like Gecko) Chrome/96.0.4664.55 Safari/537.36","Macintosh","Chrome","96.0.4664.55","OS X","10_15_7","447d70a80c75dce987d9c5508038710f",""
"31","1011","1","""","28756.29999999702","survey-text","27","1367376","0.0-27.0","{""Q0"":""I play a harmonic progression on the piano, without telling students what key it is in. Students are asked to notate the outer voices in the correct key.""}","""","""","""","2021-12-02 13:59:00","Mozilla/5.0 (Macintosh; Intel Mac OS X 10_15_7) AppleWebKit/537.36 (KHTML, like Gecko) Chrome/96.0.4664.55 Safari/537.36","Macintosh","Chrome","96.0.4664.55","OS X","10_15_7","447d70a80c75dce987d9c5508038710f",""
"32","1011","1","""","12007.400000002235","survey-likert","28","1379387","0.0-28.0","{""teach_freq_ap_01"":0,""easy_teach_02"":8,""eash_learn_03"":8,""foster_ap_04"":6,""represent_ap_05"":6}","[0,1,2,3,4]","""","""","2021-12-02 13:59:00","Mozilla/5.0 (Macintosh; Intel Mac OS X 10_15_7) AppleWebKit/537.36 (KHTML, like Gecko) Chrome/96.0.4664.55 Safari/537.36","Macintosh","Chrome","96.0.4664.55","OS X","10_15_7","447d70a80c75dce987d9c5508038710f",""
"33","1011","1","""","202147.19999999925","survey-text","29","1581549","0.0-29.0","","","","","","","","","","","","",""
"34","drift","\"" with such drifts accumulating over the course of the row. Student performance is judged in part on how close their final sung pitch is to the actual note.""""}""","""","""","""","2021-12-02 13:59:00","199.91.180.215","Mozilla/5.0 (Macintosh; Intel Mac OS X 10_15_7) AppleWebKit/537.36 (KHTML, like Gecko) Chrome/96.0.4664.55 Safari/537.36","Macintosh","Chrome","96.0.4664.55","OS X","10_15_7","","","","","","","",""
"35","1011","1","""","25887.099999997765","survey-likert","30","1607446","0.0-30.0","{""teach_freq_ap_01"":1,""easy_teach_02"":5,""eash_learn_03"":4,""foster_ap_04"":4,""represent_ap_05"":4}","[0,1,2,3,4]","""","""","2021-12-02 13:59:00","Mozilla/5.0 (Macintosh; Intel Mac OS X 10_15_7) AppleWebKit/537.36 (KHTML, like Gecko) Chrome/96.0.4664.55 Safari/537.36","Macintosh","Chrome","96.0.4664.55","OS X","10_15_7","447d70a80c75dce987d9c5508038710f",""
"36","1011","1","""","257490.70000000298","survey-text","31","1864947","0.0-31.0","{""Q0"":""Using specialized software, I alter a recording of a well-known piece, transposing it up by some interval. I play that transposed version for students, asking them to identify the interval of transposition based solely on the difference between the notated key and the heard recording.""}","""","""","""","2021-12-02 13:59:00","Mozilla/5.0 (Macintosh; Intel Mac OS X 10_15_7) AppleWebKit/537.36 (KHTML, like Gecko) Chrome/96.0.4664.55 Safari/537.36","Macintosh","Chrome","96.0.4664.55","OS X","10_15_7","447d70a80c75dce987d9c5508038710f",""
"37","1011","1","""","26677.89999999851","survey-likert","32","1891629","0.0-32.0","{""teach_freq_ap_01"":0,""easy_teach_02"":7,""eash_learn_03"":7,""foster_ap_04"":6,""represent_ap_05"":6}","[0,1,2,3,4]","""","""","2021-12-02 13:59:00","Mozilla/5.0 (Macintosh; Intel Mac OS X 10_15_7) AppleWebKit/537.36 (KHTML, like Gecko) Chrome/96.0.4664.55 Safari/537.36","Macintosh","Chrome","96.0.4664.55","OS X","10_15_7","447d70a80c75dce987d9c5508038710f",""
"38","1011","1","""","95467.89999999851","survey-text","33","1987103","0.0-33.0","{""Q0"":""original melodies, melodies found in published (public domain) pieces, original harmonic progressions in SATB style, Bach chorales, original rhythms, Classical-era piano sonatas, etc.""}","""","""","""","2021-12-02 13:59:00","Mozilla/5.0 (Macintosh; Intel Mac OS X 10_15_7) AppleWebKit/537.36 (KHTML, like Gecko) Chrome/96.0.4664.55 Safari/537.36","Macintosh","Chrome","96.0.4664.55","OS X","10_15_7","447d70a80c75dce987d9c5508038710f",""
"39","1011","1","""","9154.199999999255","html-slider-response","34","1996260","0.0-34.0","100","""","<p></p>","50","2021-12-02 13:59:00","Mozilla/5.0 (Macintosh; Intel Mac OS X 10_15_7) AppleWebKit/537.36 (KHTML, like Gecko) Chrome/96.0.4664.55 Safari/537.36","Macintosh","Chrome","96.0.4664.55","OS X","10_15_7","447d70a80c75dce987d9c5508038710f",""
"40","1011","1","""","44827.699999999255","survey-text","35","2041095","0.0-35.0","{""Q0"":""rock/pop""}","""","""","""","2021-12-02 13:59:00","Mozilla/5.0 (Macintosh; Intel Mac OS X 10_15_7) AppleWebKit/537.36 (KHTML, like Gecko) Chrome/96.0.4664.55 Safari/537.36","Macintosh","Chrome","96.0.4664.55","OS X","10_15_7","447d70a80c75dce987d9c5508038710f",""
"41","1011","1","""","85545.19999999925","survey-text","36","2126648","0.0-36.0","{""Q0"":""singing scale degrees as indicated using solfege hand signs, singing scale degrees as indicated by pointing to solfege syllables written on the board""}","""","""","""","2021-12-02 13:59:00","Mozilla/5.0 (Macintosh; Intel Mac OS X 10_15_7) AppleWebKit/537.36 (KHTML, like Gecko) Chrome/96.0.4664.55 Safari/537.36","Macintosh","Chrome","96.0.4664.55","OS X","10_15_7","447d70a80c75dce987d9c5508038710f",""
"42","1011","1","""","6953.199999999255","html-slider-response","37","2133607","0.0-37.0","5","""","<p></p>","50","2021-12-02 13:59:00","Mozilla/5.0 (Macintosh; Intel Mac OS X 10_15_7) AppleWebKit/537.36 (KHTML, like Gecko) Chrome/96.0.4664.55 Safari/537.36","Macintosh","Chrome","96.0.4664.55","OS X","10_15_7","447d70a80c75dce987d9c5508038710f",""
"43","1011","1","[{""page_index"":0,""viewing_time"":1588.9000000022352}]","1589.4000000022352","instructions","38","2135197","0.0-38.0","""","""","""","""","2021-12-02 13:59:00","Mozilla/5.0 (Macintosh; Intel Mac OS X 10_15_7) AppleWebKit/537.36 (KHTML, like Gecko) Chrome/96.0.4664.55 Safari/537.36","Macintosh","Chrome","96.0.4664.55","OS X","10_15_7","447d70a80c75dce987d9c5508038710f",""
"44","1011","1","[{""page_index"":0,""viewing_time"":4332.300000000745}]","4332.60000000149","instructions","39","2139533","0.0-39.0","""","""","""","""","2021-12-02 13:59:00","Mozilla/5.0 (Macintosh; Intel Mac OS X 10_15_7) AppleWebKit/537.36 (KHTML, like Gecko) Chrome/96.0.4664.55 Safari/537.36","Macintosh","Chrome","96.0.4664.55","OS X","10_15_7","447d70a80c75dce987d9c5508038710f",""
"45","1011","1","""","35285.699999999255","survey-multi-select","40","2174853","0.0-40.0","{""Colors"":[""Music theory (Remedial Undergraduate, Written)"",""Music theory (Remedial Undergraduate, Aural)"",""Music theory (First Year Undergraduate, Written)"",""Music theory (First Year Undergraduate, Aural)"",""Music theory (First Year Undergraduate, combined Theory and Aural)"",""Music theory (Second Year Undergraduate, Written)"",""Music theory (Second Year Undergraduate, Aural)"",""Music theory (Second Year Undergraduate, combined Theory and Aural)"",""Music theory (Junior/Senior upper-level courses, Written)"",""Music theory (Junior/Senior upper-level courses, Aural)"",""General education music courses for collegiate students""]}","[0]","""","""","2021-12-02 13:59:00","Mozilla/5.0 (Macintosh; Intel Mac OS X 10_15_7) AppleWebKit/537.36 (KHTML, like Gecko) Chrome/96.0.4664.55 Safari/537.36","Macintosh","Chrome","96.0.4664.55","OS X","10_15_7","447d70a80c75dce987d9c5508038710f",""
"46","1011","1","""","9412.800000000745","survey-text","41","2184275","0.0-41.0","{""Q0"":""22""}","""","""","""","2021-12-02 13:59:00","Mozilla/5.0 (Macintosh; Intel Mac OS X 10_15_7) AppleWebKit/537.36 (KHTML, like Gecko) Chrome/96.0.4664.55 Safari/537.36","Macintosh","Chrome","96.0.4664.55","OS X","10_15_7","447d70a80c75dce987d9c5508038710f",""
"47","1011","1","""","4864.39999999851","survey-multi-select","42","2189156","0.0-42.0","{""Colors"":[""Ph.D. in Music Theory""]}","[0]","""","""","2021-12-02 13:59:00","Mozilla/5.0 (Macintosh; Intel Mac OS X 10_15_7) AppleWebKit/537.36 (KHTML, like Gecko) Chrome/96.0.4664.55 Safari/537.36","Macintosh","Chrome","96.0.4664.55","OS X","10_15_7","447d70a80c75dce987d9c5508038710f",""
"48","1011","1","""","9556","survey-text","43","2198723","0.0-43.0","{""Q0"":""16""}","""","""","""","2021-12-02 13:59:00","Mozilla/5.0 (Macintosh; Intel Mac OS X 10_15_7) AppleWebKit/537.36 (KHTML, like Gecko) Chrome/96.0.4664.55 Safari/537.36","Macintosh","Chrome","96.0.4664.55","OS X","10_15_7","447d70a80c75dce987d9c5508038710f",""
"49","1011","1","""","39599.699999999255","survey-multi-select","44","2238334","0.0-44.0","{""Colors"":[""Public institution"",""Music Department within a university"",""NASM-accredited music program""]}","[0]","""","""","2021-12-02 13:59:00","Mozilla/5.0 (Macintosh; Intel Mac OS X 10_15_7) AppleWebKit/537.36 (KHTML, like Gecko) Chrome/96.0.4664.55 Safari/537.36","Macintosh","Chrome","96.0.4664.55","OS X","10_15_7","447d70a80c75dce987d9c5508038710f",""
"50","1011","1","""","5486.5","survey-multi-choice","45","2243827","0.0-45.0","{""Colors"":""Full-Time Tenured""}","[0]","""","""","2021-12-02 13:59:00","Mozilla/5.0 (Macintosh; Intel Mac OS X 10_15_7) AppleWebKit/537.36 (KHTML, like Gecko) Chrome/96.0.4664.55 Safari/537.36","Macintosh","Chrome","96.0.4664.55","OS X","10_15_7","447d70a80c75dce987d9c5508038710f",""
"51","1011","1","""","13125","html-slider-response","46","2256956","0.0-46.0","1","""","<p></p>","50","2021-12-02 13:59:00","Mozilla/5.0 (Macintosh; Intel Mac OS X 10_15_7) AppleWebKit/537.36 (KHTML, like Gecko) Chrome/96.0.4664.55 Safari/537.36","Macintosh","Chrome","96.0.4664.55","OS X","10_15_7","447d70a80c75dce987d9c5508038710f",""
"52","1011","1","""","3725.800000000745","html-slider-response","47","2260685","0.0-47.0","100","""","<p></p>","50","2021-12-02 13:59:00","Mozilla/5.0 (Macintosh; Intel Mac OS X 10_15_7) AppleWebKit/537.36 (KHTML, like Gecko) Chrome/96.0.4664.55 Safari/537.36","Macintosh","Chrome","96.0.4664.55","OS X","10_15_7","447d70a80c75dce987d9c5508038710f",""
"53","1011","1","[{""page_index"":0,""viewing_time"":1968}]","1968.300000000745","instructions","48","2262654","0.0-48.0","""","""","""","""","2021-12-02 13:59:00","Mozilla/5.0 (Macintosh; Intel Mac OS X 10_15_7) AppleWebKit/537.36 (KHTML, like Gecko) Chrome/96.0.4664.55 Safari/537.36","Macintosh","Chrome","96.0.4664.55","OS X","10_15_7","447d70a80c75dce987d9c5508038710f",""
"54","1011","1","""","5581.699999999255","survey-text","49","2268241","0.0-49.0","{""Q0"":""16""}","""","""","""","2021-12-02 13:59:00","Mozilla/5.0 (Macintosh; Intel Mac OS X 10_15_7) AppleWebKit/537.36 (KHTML, like Gecko) Chrome/96.0.4664.55 Safari/537.36","Macintosh","Chrome","96.0.4664.55","OS X","10_15_7","447d70a80c75dce987d9c5508038710f",""
"55","1011","1","""","21686.800000000745","survey-multi-select","50","2289939","0.0-50.0","{""Colors"":[""Moveable-Do (La-based minor)"",""Letter names""]}","[0]","""","""","2021-12-02 13:59:00","Mozilla/5.0 (Macintosh; Intel Mac OS X 10_15_7) AppleWebKit/537.36 (KHTML, like Gecko) Chrome/96.0.4664.55 Safari/537.36","Macintosh","Chrome","96.0.4664.55","OS X","10_15_7","447d70a80c75dce987d9c5508038710f",""
"56","1011","1","""","11502.900000002235","survey-text","51","2301449","0.0-51.0","{""Q0"":""California, USA""}","""","""","""","2021-12-02 13:59:00","Mozilla/5.0 (Macintosh; Intel Mac OS X 10_15_7) AppleWebKit/537.36 (KHTML, like Gecko) Chrome/96.0.4664.55 Safari/537.36","Macintosh","Chrome","96.0.4664.55","OS X","10_15_7","447d70a80c75dce987d9c5508038710f",""
"57","1011","1","""","10401.699999999255","survey-multi-select","52","2311858","0.0-52.0","{""Colors"":[""Moveable-Do (Do-based minor)"",""Letter names""]}","[0]","""","""","2021-12-02 13:59:00","Mozilla/5.0 (Macintosh; Intel Mac OS X 10_15_7) AppleWebKit/537.36 (KHTML, like Gecko) Chrome/96.0.4664.55 Safari/537.36","Macintosh","Chrome","96.0.4664.55","OS X","10_15_7","447d70a80c75dce987d9c5508038710f",""
"58","1011","1","""","7206.699999999255","survey-multi-select","53","2319075","0.0-53.0","{""Colors"":[""Moveable-Do (Do-based minor)"",""Letter names""]}","[0]","""","""","2021-12-02 13:59:00","Mozilla/5.0 (Macintosh; Intel Mac OS X 10_15_7) AppleWebKit/537.36 (KHTML, like Gecko) Chrome/96.0.4664.55 Safari/537.36","Macintosh","Chrome","96.0.4664.55","OS X","10_15_7","447d70a80c75dce987d9c5508038710f",""
"59","1011","1","""","8866.60000000149","survey-text","54","2327947","0.0-54.0","{""Q0"":""22""}","""","""","""","2021-12-02 13:59:00","Mozilla/5.0 (Macintosh; Intel Mac OS X 10_15_7) AppleWebKit/537.36 (KHTML, like Gecko) Chrome/96.0.4664.55 Safari/537.36","Macintosh","Chrome","96.0.4664.55","OS X","10_15_7","447d70a80c75dce987d9c5508038710f",""
"60","1011","1","""","24340.300000000745","survey-multi-choice","55","2352295","0.0-55.0","{""theory_track_01"":""Yes"",""pitch_mem_02"":""No"",""score_transp_03"":""No""}","[0,1,2]","""","""","2021-12-02 13:59:00","Mozilla/5.0 (Macintosh; Intel Mac OS X 10_15_7) AppleWebKit/537.36 (KHTML, like Gecko) Chrome/96.0.4664.55 Safari/537.36","Macintosh","Chrome","96.0.4664.55","OS X","10_15_7","447d70a80c75dce987d9c5508038710f",""
"61","1011","1","""","13548.10000000149","survey-multi-select","56","2365863","0.0-56.0","{""Colors"":[""Private college or university"",""Music Department within a liberal arts college"",""NASM-accredited music program""]}","[0]","""","""","2021-12-02 13:59:00","Mozilla/5.0 (Macintosh; Intel Mac OS X 10_15_7) AppleWebKit/537.36 (KHTML, like Gecko) Chrome/96.0.4664.55 Safari/537.36","Macintosh","Chrome","96.0.4664.55","OS X","10_15_7","447d70a80c75dce987d9c5508038710f",""
"62","1011","1","""","110985.5","survey-text","57","2476857","0.0-57.0","{""Q0"":""220""}","""","""","""","2021-12-02 13:59:00","Mozilla/5.0 (Macintosh; Intel Mac OS X 10_15_7) AppleWebKit/537.36 (KHTML, like Gecko) Chrome/96.0.4664.55 Safari/537.36","Macintosh","Chrome","96.0.4664.55","OS X","10_15_7","447d70a80c75dce987d9c5508038710f",""
"63","1011","1","""","13463.79999999702","survey-multi-select","58","2490331","0.0-58.0","{""Colors"":[""Bachelor of Arts (BA)"",""Bachelor of Music (BM)""]}","[0]","""","""","2021-12-02 13:59:00","Mozilla/5.0 (Macintosh; Intel Mac OS X 10_15_7) AppleWebKit/537.36 (KHTML, like Gecko) Chrome/96.0.4664.55 Safari/537.36","Macintosh","Chrome","96.0.4664.55","OS X","10_15_7","447d70a80c75dce987d9c5508038710f",""
"64","1011","1","""","29237.199999999255","survey-multi-select","59","2519577","0.0-59.0","{""Colors"":[""Part-time adjuncts"",""Full-time non-tenure eligible""]}","[0]","""","""","2021-12-02 13:59:00","Mozilla/5.0 (Macintosh; Intel Mac OS X 10_15_7) AppleWebKit/537.36 (KHTML, like Gecko) Chrome/96.0.4664.55 Safari/537.36","Macintosh","Chrome","96.0.4664.55","OS X","10_15_7","447d70a80c75dce987d9c5508038710f",""
"65","1011","1","""","11062.800000000745","survey-multi-select","60","2530645","0.0-60.0","{""Colors"":[""Graduate degree in performance""]}","[0]","""","""","2021-12-02 13:59:00","Mozilla/5.0 (Macintosh; Intel Mac OS X 10_15_7) AppleWebKit/537.36 (KHTML, like Gecko) Chrome/96.0.4664.55 Safari/537.36","Macintosh","Chrome","96.0.4664.55","OS X","10_15_7","447d70a80c75dce987d9c5508038710f",""
"66","1011","1","""","6689","survey-text","61","2537341","0.0-61.0","{""Q0"":""USA""}","""","""","""","2021-12-02 13:59:00","Mozilla/5.0 (Macintosh; Intel Mac OS X 10_15_7) AppleWebKit/537.36 (KHTML, like Gecko) Chrome/96.0.4664.55 Safari/537.36","Macintosh","Chrome","96.0.4664.55","OS X","10_15_7","447d70a80c75dce987d9c5508038710f",""
"67","1011","1","""","5801.599999997765","survey-text","62","2543151","0.0-62.0","{""Q0"":""Minnesota""}","""","""","""","2021-12-02 13:59:00","Mozilla/5.0 (Macintosh; Intel Mac OS X 10_15_7) AppleWebKit/537.36 (KHTML, like Gecko) Chrome/96.0.4664.55 Safari/537.36","Macintosh","Chrome","96.0.4664.55","OS X","10_15_7","447d70a80c75dce987d9c5508038710f",""
"68","1011","1","""","95758.90000000224","survey-text","63","2638991","0.0-63.0","","","","","","","","","","","","",""
"69","NR\"" because I hadn't noticed that \""Not Applicable\"" was also a choice. If there's any way for you to do so (and if it matters)"," please feel free to change every \""NR\"" response in Part II of this survey to \""Not applicable.\""}""","""","""","""","2021-12-02 13:59:00","199.91.180.215","Mozilla/5.0 (Macintosh; Intel Mac OS X 10_15_7) AppleWebKit/537.36 (KHTML, like Gecko) Chrome/96.0.4664.55 Safari/537.36","Macintosh","Chrome","96.0.4664.55","OS X","10_15_7","","","","","","","",""
"70","1011","1","[{""page_index"":0,""viewing_time"":3664.599999997765}]","3665.099999997765","instructions","64","2642658","0.0-64.0","""","""","""","""","2021-12-02 13:59:00","Mozilla/5.0 (Macintosh; Intel Mac OS X 10_15_7) AppleWebKit/537.36 (KHTML, like Gecko) Chrome/96.0.4664.55 Safari/537.36","Macintosh","Chrome","96.0.4664.55","OS X","10_15_7","447d70a80c75dce987d9c5508038710f",""
"71","10","1","[{""page_index"":0,""viewing_time"":1038267.7999999821},{""page_index"":1,""viewing_time"":59722.40000000596},{""page_index"":2,""viewing_time"":2978.199999988079}]","1100969.7999999821","instructions","0","1101048","0.0-0.0","""","""","""","""","2021-08-10 18:33:17","Mozilla/5.0 (Macintosh; Intel Mac OS X 10_15_7) AppleWebKit/537.36 (KHTML, like Gecko) Chrome/92.0.4515.107 Safari/537.36","Macintosh","Chrome","92.0.4515.107","OS X","10_15_7","c2ec3e1d97c081aeb487e375c8af45d6",""
"72","10","1","[{""page_index"":0,""viewing_time"":3645.699999988079}]","3646.199999988079","instructions","1","1104702","0.0-1.0","""","""","""","""","2021-08-10 18:33:17","Mozilla/5.0 (Macintosh; Intel Mac OS X 10_15_7) AppleWebKit/537.36 (KHTML, like Gecko) Chrome/92.0.4515.107 Safari/537.36","Macintosh","Chrome","92.0.4515.107","OS X","10_15_7","c2ec3e1d97c081aeb487e375c8af45d6",""
"73","10","1","""","288062.7000000179","survey-likert","2","1392791","0.0-2.0","{""rp_name_relation"":2,""rp_name_abref"":0,""ap_to_rp"":0,""ap_lose"":6,""ap_name_relation"":6,""rp_lose"":2,""ap_id_interval"":1,""rp_id_440"":4,""ap_produce_interval"":3,""rp_remember_group"":3,""rp_to_ap"":0,""rp_produce_440"":3,""ap_produce_abref"":6,""ap_ref_tonal"":6,""rp_id_interval"":6,""rp_produce_interval"":6,""ap_remember_group"":4,""rp_ref_tonal"":6,""rp_produce_abref"":0,""ap_produce_440"":0,""ap_produce_tonality"":6,""ap_name_abref"":6,""ap_perceive_same"":1,""rp_produce_tonality"":6,""rp_perceive_same"":6,""ap_id_440"":0}","[5,9,21,27,19,12,17,7,18,11,13,8,25,2,3,4,14,26,0,10,23,16,24,20,1,15,6,22]","""","""","2021-08-10 18:33:17","Mozilla/5.0 (Macintosh; Intel Mac OS X 10_15_7) AppleWebKit/537.36 (KHTML, like Gecko) Chrome/92.0.4515.107 Safari/537.36","Macintosh","Chrome","92.0.4515.107","OS X","10_15_7","c2ec3e1d97c081aeb487e375c8af45d6",""
"74","10","1","""","53812.5","survey-text","3","1446620","0.0-3.0","{""Q0"":""Not applicable.""}","""","""","""","2021-08-10 18:33:17","Mozilla/5.0 (Macintosh; Intel Mac OS X 10_15_7) AppleWebKit/537.36 (KHTML, like Gecko) Chrome/92.0.4515.107 Safari/537.36","Macintosh","Chrome","92.0.4515.107","OS X","10_15_7","c2ec3e1d97c081aeb487e375c8af45d6",""
"75","10","1","""","14436.200000017881","survey-text","4","1461063","0.0-4.0","{""Q0"":""Not applicable.""}","""","""","""","2021-08-10 18:33:17","Mozilla/5.0 (Macintosh; Intel Mac OS X 10_15_7) AppleWebKit/537.36 (KHTML, like Gecko) Chrome/92.0.4515.107 Safari/537.36","Macintosh","Chrome","92.0.4515.107","OS X","10_15_7","c2ec3e1d97c081aeb487e375c8af45d6",""
"76","10","1","[{""page_index"":0,""viewing_time"":1844.6000000238419}]","1845.5","instructions","5","1462912","0.0-5.0","""","""","""","""","2021-08-10 18:33:17","Mozilla/5.0 (Macintosh; Intel Mac OS X 10_15_7) AppleWebKit/537.36 (KHTML, like Gecko) Chrome/92.0.4515.107 Safari/537.36","Macintosh","Chrome","92.0.4515.107","OS X","10_15_7","c2ec3e1d97c081aeb487e375c8af45d6",""
"77","10","1","""","120474.79999998212","survey-likert","6","1583399","0.0-6.0","{""rp_better_others"":6,""rp_override"":6,""re_people_al"":2,""rp_trained_ap"":4,""ap_override"":6,""ap_better_others"":6,""ap_trained_ap"":3,""rp_normal"":4,""ap_impaired"":5,""ap_tonedeaf"":0,""rp_tonedeaf"":4,""ap_normal"":2,""rp_impaired"":1,""ap_people_all"":0}","[6,2,0,3,9,13,10,5,8,11,4,12,1,7]","""","""","2021-08-10 18:33:17","Mozilla/5.0 (Macintosh; Intel Mac OS X 10_15_7) AppleWebKit/537.36 (KHTML, like Gecko) Chrome/92.0.4515.107 Safari/537.36","Macintosh","Chrome","92.0.4515.107","OS X","10_15_7","c2ec3e1d97c081aeb487e375c8af45d6",""
"78","10","1","[{""page_index"":0,""viewing_time"":4751.5}]","4751.800000011921","instructions","7","1588158","0.0-7.0","""","""","""","""","2021-08-10 18:33:17","Mozilla/5.0 (Macintosh; Intel Mac OS X 10_15_7) AppleWebKit/537.36 (KHTML, like Gecko) Chrome/92.0.4515.107 Safari/537.36","Macintosh","Chrome","92.0.4515.107","OS X","10_15_7","c2ec3e1d97c081aeb487e375c8af45d6",""
"79","10","1","[{""page_index"":0,""viewing_time"":3958.300000011921}]","3958.5999999940395","instructions","8","1592118","0.0-8.0","""","""","""","""","2021-08-10 18:33:17","Mozilla/5.0 (Macintosh; Intel Mac OS X 10_15_7) AppleWebKit/537.36 (KHTML, like Gecko) Chrome/92.0.4515.107 Safari/537.36","Macintosh","Chrome","92.0.4515.107","OS X","10_15_7","c2ec3e1d97c081aeb487e375c8af45d6",""
"80","10","1","[{""page_index"":0,""viewing_time"":22495.69999998808}]","22496.09999999404","instructions","9","1614617","0.0-9.0","""","""","""","""","2021-08-10 18:33:17","Mozilla/5.0 (Macintosh; Intel Mac OS X 10_15_7) AppleWebKit/537.36 (KHTML, like Gecko) Chrome/92.0.4515.107 Safari/537.36","Macintosh","Chrome","92.0.4515.107","OS X","10_15_7","c2ec3e1d97c081aeb487e375c8af45d6",""
"81","10","1","""","31176","survey-text","10","1645798","0.0-10.0","{""Q0"":""Sing on scale-degree numbers.""}","""","""","""","2021-08-10 18:33:17","Mozilla/5.0 (Macintosh; Intel Mac OS X 10_15_7) AppleWebKit/537.36 (KHTML, like Gecko) Chrome/92.0.4515.107 Safari/537.36","Macintosh","Chrome","92.0.4515.107","OS X","10_15_7","c2ec3e1d97c081aeb487e375c8af45d6",""
"82","10","1","""","21750.90000000596","survey-likert","11","1667556","0.0-11.0","{""rp_ac_rate"":6}","[0,1,2,3,4]","""","""","2021-08-10 18:33:17","Mozilla/5.0 (Macintosh; Intel Mac OS X 10_15_7) AppleWebKit/537.36 (KHTML, like Gecko) Chrome/92.0.4515.107 Safari/537.36","Macintosh","Chrome","92.0.4515.107","OS X","10_15_7","c2ec3e1d97c081aeb487e375c8af45d6",""
"83","10","1","""","8455.59999999404","survey-text","12","1676024","0.0-12.0","{""Q0"":""}","""","""","""","2021-08-10 18:33:17","Mozilla/5.0 (Macintosh; Intel Mac OS X 10_15_7) AppleWebKit/537.36 (KHTML, like Gecko) Chrome/92.0.4515.107 Safari/537.36","Macintosh","Chrome","92.0.4515.107","OS X","10_15_7","c2ec3e1d97c081aeb487e375c8af45d6",""
"84","10","1","""","3252","survey-likert","13","1679282","0.0-13.0","{""rp_ac_rate"":""}","[0,1,2,3,4]","""","""","2021-08-10 18:33:17","Mozilla/5.0 (Macintosh; Intel Mac OS X 10_15_7) AppleWebKit/537.36 (KHTML, like Gecko) Chrome/92.0.4515.107 Safari/537.36","Macintosh","Chrome","92.0.4515.107","OS X","10_15_7","c2ec3e1d97c081aeb487e375c8af45d6",""
"85","10","1","""","11076.09999999404","survey-text","14","1690366","0.0-14.0","{""Q0"":""Take dictation on scale-degree numbers.""}","""","""","""","2021-08-10 18:33:17","Mozilla/5.0 (Macintosh; Intel Mac OS X 10_15_7) AppleWebKit/537.36 (KHTML, like Gecko) Chrome/92.0.4515.107 Safari/537.36","Macintosh","Chrome","92.0.4515.107","OS X","10_15_7","c2ec3e1d97c081aeb487e375c8af45d6",""
"86","10","1","""","12564.90000000596","survey-likert","15","1702938","0.0-15.0","{""rp_ac_rate"":6}","[0,1,2,3,4]","""","""","2021-08-10 18:33:17","Mozilla/5.0 (Macintosh; Intel Mac OS X 10_15_7) AppleWebKit/537.36 (KHTML, like Gecko) Chrome/92.0.4515.107 Safari/537.36","Macintosh","Chrome","92.0.4515.107","OS X","10_15_7","c2ec3e1d97c081aeb487e375c8af45d6",""
"87","10","1","""","1196.5","survey-text","16","1704145","0.0-16.0","{""Q0"":""}","""","""","""","2021-08-10 18:33:17","Mozilla/5.0 (Macintosh; Intel Mac OS X 10_15_7) AppleWebKit/537.36 (KHTML, like Gecko) Chrome/92.0.4515.107 Safari/537.36","Macintosh","Chrome","92.0.4515.107","OS X","10_15_7","c2ec3e1d97c081aeb487e375c8af45d6",""
"88","10","1","""","2498.0999999940395","survey-likert","17","1706650","0.0-17.0","{""rp_ac_rate"":""}","[0,1,2,3,4]","""","""","2021-08-10 18:33:17","Mozilla/5.0 (Macintosh; Intel Mac OS X 10_15_7) AppleWebKit/537.36 (KHTML, like Gecko) Chrome/92.0.4515.107 Safari/537.36","Macintosh","Chrome","92.0.4515.107","OS X","10_15_7","c2ec3e1d97c081aeb487e375c8af45d6",""
"89","10","1","""","3867.199999988079","survey-text","18","1710528","0.0-18.0","{""Q0"":""}","""","""","""","2021-08-10 18:33:17","Mozilla/5.0 (Macintosh; Intel Mac OS X 10_15_7) AppleWebKit/537.36 (KHTML, like Gecko) Chrome/92.0.4515.107 Safari/537.36","Macintosh","Chrome","92.0.4515.107","OS X","10_15_7","c2ec3e1d97c081aeb487e375c8af45d6",""
"90","10","1","""","3193.5","survey-likert","19","1713726","0.0-19.0","{""rp_ac_rate"":""}","[0,1,2,3,4]","""","""","2021-08-10 18:33:17","Mozilla/5.0 (Macintosh; Intel Mac OS X 10_15_7) AppleWebKit/537.36 (KHTML, like Gecko) Chrome/92.0.4515.107 Safari/537.36","Macintosh","Chrome","92.0.4515.107","OS X","10_15_7","c2ec3e1d97c081aeb487e375c8af45d6",""
"91","10","1","[{""page_index"":0,""viewing_time"":1969.6000000238419}]","1970.300000011921","instructions","20","1715705","0.0-20.0","""","""","""","""","2021-08-10 18:33:17","Mozilla/5.0 (Macintosh; Intel Mac OS X 10_15_7) AppleWebKit/537.36 (KHTML, like Gecko) Chrome/92.0.4515.107 Safari/537.36","Macintosh","Chrome","92.0.4515.107","OS X","10_15_7","c2ec3e1d97c081aeb487e375c8af45d6",""
"92","10","1","""","88913.40000000596","survey-text","21","1804625","0.0-21.0","{""Q0"":""Sing A at the start of class.""}","""","""","""","2021-08-10 18:33:17","Mozilla/5.0 (Macintosh; Intel Mac OS X 10_15_7) AppleWebKit/537.36 (KHTML, like Gecko) Chrome/92.0.4515.107 Safari/537.36","Macintosh","Chrome","92.0.4515.107","OS X","10_15_7","c2ec3e1d97c081aeb487e375c8af45d6",""
"93","10","1","""","48202.10000002384","survey-likert","22","1852836","0.0-22.0","{""rp_ac_rate"":3}","[0,1,2,3,4]","""","""","2021-08-10 18:33:17","Mozilla/5.0 (Macintosh; Intel Mac OS X 10_15_7) AppleWebKit/537.36 (KHTML, like Gecko) Chrome/92.0.4515.107 Safari/537.36","Macintosh","Chrome","92.0.4515.107","OS X","10_15_7","c2ec3e1d97c081aeb487e375c8af45d6",""
"94","10","1","""","17891.90000000596","survey-text","23","1870739","0.0-23.0","{""Q0"":""Teaching C-clefs.""}","""","""","""","2021-08-10 18:33:17","Mozilla/5.0 (Macintosh; Intel Mac OS X 10_15_7) AppleWebKit/537.36 (KHTML, like Gecko) Chrome/92.0.4515.107 Safari/537.36","Macintosh","Chrome","92.0.4515.107","OS X","10_15_7","c2ec3e1d97c081aeb487e375c8af45d6",""
"95","10","1","""","18750.80000001192","survey-likert","24","1889497","0.0-24.0","{""rp_ac_rate"":4}","[0,1,2,3,4]","""","""","2021-08-10 18:33:17","Mozilla/5.0 (Macintosh; Intel Mac OS X 10_15_7) AppleWebKit/537.36 (KHTML, like Gecko) Chrome/92.0.4515.107 Safari/537.36","Macintosh","Chrome","92.0.4515.107","OS X","10_15_7","c2ec3e1d97c081aeb487e375c8af45d6",""
"96","10","1","""","3653.199999988079","survey-text","25","1893161","0.0-25.0","{""Q0"":""}","""","""","""","2021-08-10 18:33:17","Mozilla/5.0 (Macintosh; Intel Mac OS X 10_15_7) AppleWebKit/537.36 (KHTML, like Gecko) Chrome/92.0.4515.107 Safari/537.36","Macintosh","Chrome","92.0.4515.107","OS X","10_15_7","c2ec3e1d97c081aeb487e375c8af45d6",""
"97","10","1","""","4786.5","survey-likert","26","1897955","0.0-26.0","{""rp_ac_rate"":""}","[0,1,2,3,4]","""","""","2021-08-10 18:33:17","Mozilla/5.0 (Macintosh; Intel Mac OS X 10_15_7) AppleWebKit/537.36 (KHTML, like Gecko) Chrome/92.0.4515.107 Safari/537.36","Macintosh","Chrome","92.0.4515.107","OS X","10_15_7","c2ec3e1d97c081aeb487e375c8af45d6",""
"98","10","1","""","2099.5","survey-text","27","1900063","0.0-27.0","{""Q0"":""}","""","""","""","2021-08-10 18:33:17","Mozilla/5.0 (Macintosh; Intel Mac OS X 10_15_7) AppleWebKit/537.36 (KHTML, like Gecko) Chrome/92.0.4515.107 Safari/537.36","Macintosh","Chrome","92.0.4515.107","OS X","10_15_7","c2ec3e1d97c081aeb487e375c8af45d6",""
"99","10","1","""","12107.59999999404","survey-likert","28","1912178","0.0-28.0","{""rp_ac_rate"":""}","[0,1,2,3,4]","""","""","2021-08-10 18:33:17","Mozilla/5.0 (Macintosh; Intel Mac OS X 10_15_7) AppleWebKit/537.36 (KHTML, like Gecko) Chrome/92.0.4515.107 Safari/537.36","Macintosh","Chrome","92.0.4515.107","OS X","10_15_7","c2ec3e1d97c081aeb487e375c8af45d6",""
"100","10","1","""","49398.70000001788","survey-text","29","1961588","0.0-29.0","{""Q0"":""}","""","""","""","2021-08-10 18:33:17","Mozilla/5.0 (Macintosh; Intel Mac OS X 10_15_7) AppleWebKit/537.36 (KHTML, like Gecko) Chrome/92.0.4515.107 Safari/537.36","Macintosh","Chrome","92.0.4515.107","OS X","10_15_7","c2ec3e1d97c081aeb487e375c8af45d6",""
"101","10","1","""","4490.4000000059605","survey-likert","30","1966088","0.0-30.0","{""rp_ac_rate"":""}","[0,1,2,3,4]","""","""","2021-08-10 18:33:17","Mozilla/5.0 (Macintosh; Intel Mac OS X 10_15_7) AppleWebKit/537.36 (KHTML, like Gecko) Chrome/92.0.4515.107 Safari/537.36","Macintosh","Chrome","92.0.4515.107","OS X","10_15_7","c2ec3e1d97c081aeb487e375c8af45d6",""
"102","10","1","""","143862.40000000596","survey-text","31","2109964","0.0-31.0","{""Q0"":""}","""","""","""","2021-08-10 18:33:17","Mozilla/5.0 (Macintosh; Intel Mac OS X 10_15_7) AppleWebKit/537.36 (KHTML, like Gecko) Chrome/92.0.4515.107 Safari/537.36","Macintosh","Chrome","92.0.4515.107","OS X","10_15_7","c2ec3e1d97c081aeb487e375c8af45d6",""
"103","10","1","""","15876.40000000596","html-slider-response","32","2125847","0.0-32.0","92","""","<p></p>","50","2021-08-10 18:33:17","Mozilla/5.0 (Macintosh; Intel Mac OS X 10_15_7) AppleWebKit/537.36 (KHTML, like Gecko) Chrome/92.0.4515.107 Safari/537.36","Macintosh","Chrome","92.0.4515.107","OS X","10_15_7","c2ec3e1d97c081aeb487e375c8af45d6",""
"104","10","1","""","7194.5999999940395","survey-text","33","2133046","0.0-33.0","{""Q0"":""}","""","""","""","2021-08-10 18:33:17","Mozilla/5.0 (Macintosh; Intel Mac OS X 10_15_7) AppleWebKit/537.36 (KHTML, like Gecko) Chrome/92.0.4515.107 Safari/537.36","Macintosh","Chrome","92.0.4515.107","OS X","10_15_7","c2ec3e1d97c081aeb487e375c8af45d6",""
"105","10","1","""","88643.40000000596","survey-text","34","2221698","0.0-34.0","{""Q0"":""Singing and dictation on scale-degree numbers.""}","""","""","""","2021-08-10 18:33:17","Mozilla/5.0 (Macintosh; Intel Mac OS X 10_15_7) AppleWebKit/537.36 (KHTML, like Gecko) Chrome/92.0.4515.107 Safari/537.36","Macintosh","Chrome","92.0.4515.107","OS X","10_15_7","c2ec3e1d97c081aeb487e375c8af45d6",""
"106","10","1","""","4430","html-slider-response","35","2226130","0.0-35.0","55","""","<p></p>","50","2021-08-10 18:33:17","Mozilla/5.0 (Macintosh; Intel Mac OS X 10_15_7) AppleWebKit/537.36 (KHTML, like Gecko) Chrome/92.0.4515.107 Safari/537.36","Macintosh","Chrome","92.0.4515.107","OS X","10_15_7","c2ec3e1d97c081aeb487e375c8af45d6",""
"107","10","1","[{""page_index"":0,""viewing_time"":8627.5}]","8628","instructions","36","2234763","0.0-36.0","""","""","""","""","2021-08-10 18:33:17","Mozilla/5.0 (Macintosh; Intel Mac OS X 10_15_7) AppleWebKit/537.36 (KHTML, like Gecko) Chrome/92.0.4515.107 Safari/537.36","Macintosh","Chrome","92.0.4515.107","OS X","10_15_7","c2ec3e1d97c081aeb487e375c8af45d6",""
"108","10","1","[{""page_index"":0,""viewing_time"":4536.299999982119}]","4536.699999988079","instructions","37","2239300","0.0-37.0","""","""","""","""","2021-08-10 18:33:17","Mozilla/5.0 (Macintosh; Intel Mac OS X 10_15_7) AppleWebKit/537.36 (KHTML, like Gecko) Chrome/92.0.4515.107 Safari/537.36","Macintosh","Chrome","92.0.4515.107","OS X","10_15_7","c2ec3e1d97c081aeb487e375c8af45d6",""
"109","10","1","""","41681","survey-multi-select","38","2280997","0.0-38.0","{""Colors"":[""Music theory (Graduate, Written)"",""Music theory (Graduate , Aural)""]}","[0]","""","""","2021-08-10 18:33:17","Mozilla/5.0 (Macintosh; Intel Mac OS X 10_15_7) AppleWebKit/537.36 (KHTML, like Gecko) Chrome/92.0.4515.107 Safari/537.36","Macintosh","Chrome","92.0.4515.107","OS X","10_15_7","c2ec3e1d97c081aeb487e375c8af45d6",""
"110","10","1","""","21360.09999999404","survey-text","39","2302370","0.0-39.0","{""Q0"":""40""}","""","""","""","2021-08-10 18:33:17","Mozilla/5.0 (Macintosh; Intel Mac OS X 10_15_7) AppleWebKit/537.36 (KHTML, like Gecko) Chrome/92.0.4515.107 Safari/537.36","Macintosh","Chrome","92.0.4515.107","OS X","10_15_7","c2ec3e1d97c081aeb487e375c8af45d6",""
"111","10","1","""","4938.4000000059605","survey-multi-select","40","2307321","0.0-40.0","{""Colors"":[""Ph.D. in Music Theory""]}","[0]","""","""","2021-08-10 18:33:17","Mozilla/5.0 (Macintosh; Intel Mac OS X 10_15_7) AppleWebKit/537.36 (KHTML, like Gecko) Chrome/92.0.4515.107 Safari/537.36","Macintosh","Chrome","92.0.4515.107","OS X","10_15_7","c2ec3e1d97c081aeb487e375c8af45d6",""
"112","10","1","""","31938.70000001788","survey-text","41","2339268","0.0-41.0","{""Q0"":""32""}","""","""","""","2021-08-10 18:33:17","Mozilla/5.0 (Macintosh; Intel Mac OS X 10_15_7) AppleWebKit/537.36 (KHTML, like Gecko) Chrome/92.0.4515.107 Safari/537.36","Macintosh","Chrome","92.0.4515.107","OS X","10_15_7","c2ec3e1d97c081aeb487e375c8af45d6",""
"113","10","1","""","10984.300000011921","survey-multi-select","42","2350257","0.0-42.0","{""Colors"":[""Private institution"",""Conservatory-style professional music school (within a university)"",""NASM-accredited music program""]}","[0]","""","""","2021-08-10 18:33:17","Mozilla/5.0 (Macintosh; Intel Mac OS X 10_15_7) AppleWebKit/537.36 (KHTML, like Gecko) Chrome/92.0.4515.107 Safari/537.36","Macintosh","Chrome","92.0.4515.107","OS X","10_15_7","c2ec3e1d97c081aeb487e375c8af45d6",""
"114","10","1","""","10674","survey-multi-select","43","2360944","0.0-43.0","{""Colors"":[""Full-Time Tenured""]}","[0]","""","""","2021-08-10 18:33:17","Mozilla/5.0 (Macintosh; Intel Mac OS X 10_15_7) AppleWebKit/537.36 (KHTML, like Gecko) Chrome/92.0.4515.107 Safari/537.36","Macintosh","Chrome","92.0.4515.107","OS X","10_15_7","c2ec3e1d97c081aeb487e375c8af45d6",""
"115","10","1","[{""page_index"":0,""viewing_time"":9081.40000000596}]","9081.90000000596","instructions","44","2370037","0.0-44.0","""","""","""","""","2021-08-10 18:33:17","Mozilla/5.0 (Macintosh; Intel Mac OS X 10_15_7) AppleWebKit/537.36 (KHTML, like Gecko) Chrome/92.0.4515.107 Safari/537.36","Macintosh","Chrome","92.0.4515.107","OS X","10_15_7","c2ec3e1d97c081aeb487e375c8af45d6",""
"116","10","1","""","9095.40000000596","survey-text","45","2379138","0.0-45.0","{""Q0"":""18""}","""","""","""","2021-08-10 18:33:17","Mozilla/5.0 (Macintosh; Intel Mac OS X 10_15_7) AppleWebKit/537.36 (KHTML, like Gecko) Chrome/92.0.4515.107 Safari/537.36","Macintosh","Chrome","92.0.4515.107","OS X","10_15_7","c2ec3e1d97c081aeb487e375c8af45d6",""
"117","10","1","""","45056.5","survey-multi-select","46","2424209","0.0-46.0","{""Colors"":[""Moveable-Do (La-based minor)"",""Fixed Do without inflections""]}","[0]","""","""","2021-08-10 18:33:17","Mozilla/5.0 (Macintosh; Intel Mac OS X 10_15_7) AppleWebKit/537.36 (KHTML, like Gecko) Chrome/92.0.4515.107 Safari/537.36","Macintosh","Chrome","92.0.4515.107","OS X","10_15_7","c2ec3e1d97c081aeb487e375c8af45d6",""
"118","10","1","""","15569.199999988079","survey-multi-select","47","2439796","0.0-47.0","{""Colors"":[""Scale-degree numbers without inflections (e.g. An F# in the key of C is sung as Fa)""]}","[0]","""","""","2021-08-10 18:33:17","Mozilla/5.0 (Macintosh; Intel Mac OS X 10_15_7) AppleWebKit/537.36 (KHTML, like Gecko) Chrome/92.0.4515.107 Safari/537.36","Macintosh","Chrome","92.0.4515.107","OS X","10_15_7","c2ec3e1d97c081aeb487e375c8af45d6",""
"119","10","1","""","13250.300000011921","survey-multi-select","48","2453060","0.0-48.0","{""Colors"":[""Fixed Do without inflections""]}","[0]","""","""","2021-08-10 18:33:17","Mozilla/5.0 (Macintosh; Intel Mac OS X 10_15_7) AppleWebKit/537.36 (KHTML, like Gecko) Chrome/92.0.4515.107 Safari/537.36","Macintosh","Chrome","92.0.4515.107","OS X","10_15_7","c2ec3e1d97c081aeb487e375c8af45d6",""
"120","10","1","""","9075.5","survey-multi-select","49","2462150","0.0-49.0","{""Colors"":[""Scale-degree numbers without inflections""]}","[0]","""","""","2021-08-10 18:33:17","Mozilla/5.0 (Macintosh; Intel Mac OS X 10_15_7) AppleWebKit/537.36 (KHTML, like Gecko) Chrome/92.0.4515.107 Safari/537.36","Macintosh","Chrome","92.0.4515.107","OS X","10_15_7","c2ec3e1d97c081aeb487e375c8af45d6",""
"121","10","1","""","21371.19999998808","survey-text","50","2483535","0.0-50.0","{""Q0"":""10""}","""","""","""","2021-08-10 18:33:17","Mozilla/5.0 (Macintosh; Intel Mac OS X 10_15_7) AppleWebKit/537.36 (KHTML, like Gecko) Chrome/92.0.4515.107 Safari/537.36","Macintosh","Chrome","92.0.4515.107","OS X","10_15_7","c2ec3e1d97c081aeb487e375c8af45d6",""
"122","10","1","""","13129.600000023842","survey-likert","51","2496668","0.0-51.0","{""often"":2,""rp"":4}","[0,1]","""","""","2021-08-10 18:33:17","Mozilla/5.0 (Macintosh; Intel Mac OS X 10_15_7) AppleWebKit/537.36 (KHTML, like Gecko) Chrome/92.0.4515.107 Safari/537.36","Macintosh","Chrome","92.0.4515.107","OS X","10_15_7","c2ec3e1d97c081aeb487e375c8af45d6",""
"123","10","1","""","7794.4000000059605","survey-likert","52","2504470","0.0-52.0","{""often"":1,""rp"":4}","[0,1]","""","""","2021-08-10 18:33:17","Mozilla/5.0 (Macintosh; Intel Mac OS X 10_15_7) AppleWebKit/537.36 (KHTML, like Gecko) Chrome/92.0.4515.107 Safari/537.36","Macintosh","Chrome","92.0.4515.107","OS X","10_15_7","c2ec3e1d97c081aeb487e375c8af45d6",""
"124","10","1","""","46929.70000001788","survey-multi-choice","53","2551417","0.0-53.0","{""theory_track"":""Yes"",""pitch_mem"":""Yes"",""score_transp"":""Yes""}","[0,1,2]","""","""","2021-08-10 18:33:17","Mozilla/5.0 (Macintosh; Intel Mac OS X 10_15_7) AppleWebKit/537.36 (KHTML, like Gecko) Chrome/92.0.4515.107 Safari/537.36","Macintosh","Chrome","92.0.4515.107","OS X","10_15_7","c2ec3e1d97c081aeb487e375c8af45d6",""
"125","10","1","""","76796.5","survey-multi-select","54","2628238","0.0-54.0","{""Colors"":[""Private college or university"",""Conservatory-style professional music school (within a university)""]}","[0]","""","""","2021-08-10 18:33:17","Mozilla/5.0 (Macintosh; Intel Mac OS X 10_15_7) AppleWebKit/537.36 (KHTML, like Gecko) Chrome/92.0.4515.107 Safari/537.36","Macintosh","Chrome","92.0.4515.107","OS X","10_15_7","c2ec3e1d97c081aeb487e375c8af45d6",""
"126","10","1","""","7682.5","survey-text","55","2635933","0.0-55.0","{""Q0"":""900""}","""","""","""","2021-08-10 18:33:17","Mozilla/5.0 (Macintosh; Intel Mac OS X 10_15_7) AppleWebKit/537.36 (KHTML, like Gecko) Chrome/92.0.4515.107 Safari/537.36","Macintosh","Chrome","92.0.4515.107","OS X","10_15_7","c2ec3e1d97c081aeb487e375c8af45d6",""
"127","10","1","""","17261.5","survey-multi-select","56","2653205","0.0-56.0","{""Colors"":[""Certificate (e.g. Recording Arts, Songwriting)"",""AP Music Theory Classes"",""Bachelor of Music (BM)"",""Masters (MA)"",""Masters (MM)"",""Perfomer's Certificate/Graduate Performance Diploma"",""Doctorate (DMA or DM)"",""Doctorate (Ph.D.)""]}","[0]","""","""","2021-08-10 18:33:17","Mozilla/5.0 (Macintosh; Intel Mac OS X 10_15_7) AppleWebKit/537.36 (KHTML, like Gecko) Chrome/92.0.4515.107 Safari/537.36","Macintosh","Chrome","92.0.4515.107","OS X","10_15_7","c2ec3e1d97c081aeb487e375c8af45d6",""
"128","10","1","""","11252.800000011921","survey-multi-select","57","2664472","0.0-57.0","{""Colors"":[""Graduate student (teaching assistants)""]}","[0]","""","""","2021-08-10 18:33:17","Mozilla/5.0 (Macintosh; Intel Mac OS X 10_15_7) AppleWebKit/537.36 (KHTML, like Gecko) Chrome/92.0.4515.107 Safari/537.36","Macintosh","Chrome","92.0.4515.107","OS X","10_15_7","c2ec3e1d97c081aeb487e375c8af45d6",""
"129","10","1","""","284377","survey-multi-select","58","2948873","0.0-58.0","{""Colors"":[""Graduate degree in music theory or composition""]}","[0]","""","""","2021-08-10 18:33:17","Mozilla/5.0 (Macintosh; Intel Mac OS X 10_15_7) AppleWebKit/537.36 (KHTML, like Gecko) Chrome/92.0.4515.107 Safari/537.36","Macintosh","Chrome","92.0.4515.107","OS X","10_15_7","c2ec3e1d97c081aeb487e375c8af45d6",""
"130","10","1","""","161069.90000000596","survey-text","59","3109960","0.0-59.0","{""Q0"":""USA""}","""","""","""","2021-08-10 18:33:17","Mozilla/5.0 (Macintosh; Intel Mac OS X 10_15_7) AppleWebKit/537.36 (KHTML, like Gecko) Chrome/92.0.4515.107 Safari/537.36","Macintosh","Chrome","92.0.4515.107","OS X","10_15_7","c2ec3e1d97c081aeb487e375c8af45d6",""
"131","10","1","""","3315.4000000059605","survey-text","60","3113282","0.0-60.0","{""Q0"":""NY""}","""","""","""","2021-08-10 18:33:17","Mozilla/5.0 (Macintosh; Intel Mac OS X 10_15_7) AppleWebKit/537.36 (KHTML, like Gecko) Chrome/92.0.4515.107 Safari/537.36","Macintosh","Chrome","92.0.4515.107","OS X","10_15_7","c2ec3e1d97c081aeb487e375c8af45d6",""
"132","10","1","""","8667.700000017881","survey-text","61","3121954","0.0-61.0","{""Q0"":""No thanks, excellent work!""}","""","""","""","2021-08-10 18:33:17","Mozilla/5.0 (Macintosh; Intel Mac OS X 10_15_7) AppleWebKit/537.36 (KHTML, like Gecko) Chrome/92.0.4515.107 Safari/537.36","Macintosh","Chrome","92.0.4515.107","OS X","10_15_7","c2ec3e1d97c081aeb487e375c8af45d6",""
"133","10","1","[{""page_index"":0,""viewing_time"":7229.699999988079}]","7230.0999999940395","instructions","62","3129187","0.0-62.0","""","""","""","""","2021-08-10 18:33:17","Mozilla/5.0 (Macintosh; Intel Mac OS X 10_15_7) AppleWebKit/537.36 (KHTML, like Gecko) Chrome/92.0.4515.107 Safari/537.36","Macintosh","Chrome","92.0.4515.107","OS X","10_15_7","c2ec3e1d97c081aeb487e375c8af45d6",""
"134","1071","1","[{""page_index"":0,""viewing_time"":6206.899999976158},{""page_index"":1,""viewing_time"":3799.7999999523163},{""page_index"":2,""viewing_time"":2328}]","12335.299999952316","instructions","0","12353","0.0-0.0","""","""","""","""","2021-12-02 19:26:01","Mozilla/5.0 (Windows NT 10.0; Win64; x64) AppleWebKit/537.36 (KHTML, like Gecko) Chrome/96.0.4664.45 Safari/537.36","WebKit","Chrome","96.0.4664.45","Windows","10.0","447d70a80c75dce987d9c5508038710f",""
"135","1071","1","[{""page_index"":0,""viewing_time"":1844.3999999761581}]","1844.6000000238419","instructions","1","14200","0.0-1.0","""","""","""","""","2021-12-02 19:26:01","Mozilla/5.0 (Windows NT 10.0; Win64; x64) AppleWebKit/537.36 (KHTML, like Gecko) Chrome/96.0.4664.45 Safari/537.36","WebKit","Chrome","96.0.4664.45","Windows","10.0","447d70a80c75dce987d9c5508038710f",""
"136","1071","1","""","235645.60000002384","survey-likert","2","249849","0.0-2.0","{""ap_name_relation_20"":2,""ap_remember_group_27"":3,""ap_ref_tonal_16"":5,""rp_name_abref_10"":2,""rp_remember_group_12"":5,""ap_produce_abref_26"":6,""rp_lose_13"":3,""ap_id_440_23"":3,""rp_produce_abref_11"":1,""ap_perceive_same_21"":3,""ap_name_abref_25"":6,""ap_produce_interval_19"":3,""ap_produce_440_24"":2,""ap_lose_28"":3,""rp_ref_tonal_01"":5,""ap_to_rp_22"":2,""rp_perceive_same_07"":5,""rp_name_relation_06"":6,""ap_ref_tonal_03"":2,""rp_id_44_08"":6,""rp_produce_tonality_02"":6,""rp_produce_interval_05"":6,""ap_id_interval_18"":4,""rp_produce_440_09"":6,""ap_produce_tonality_17"":2,""rp_to_ap_14"":5,""ap_ref_tonal_15"":2,""rp_id_interval_04"":5}","[19,26,15,9,11,25,12,22,10,20,24,18,23,27,0,21,6,5,2,7,1,4,17,8,16,13,14,3]","""","""","2021-12-02 19:26:01","Mozilla/5.0 (Windows NT 10.0; Win64; x64) AppleWebKit/537.36 (KHTML, like Gecko) Chrome/96.0.4664.45 Safari/537.36","WebKit","Chrome","96.0.4664.45","Windows","10.0","447d70a80c75dce987d9c5508038710f",""
"137","1071","1","""","11573.699999928474","survey-text","3","261430","0.0-3.0","{""Q0"":""n/a""}","""","""","""","2021-12-02 19:26:01","Mozilla/5.0 (Windows NT 10.0; Win64; x64) AppleWebKit/537.36 (KHTML, like Gecko) Chrome/96.0.4664.45 Safari/537.36","WebKit","Chrome","96.0.4664.45","Windows","10.0","447d70a80c75dce987d9c5508038710f",""
"138","1071","1","""","5118.600000023842","survey-text","4","266550","0.0-4.0","{""Q0"":""n/a""}","""","""","""","2021-12-02 19:26:01","Mozilla/5.0 (Windows NT 10.0; Win64; x64) AppleWebKit/537.36 (KHTML, like Gecko) Chrome/96.0.4664.45 Safari/537.36","WebKit","Chrome","96.0.4664.45","Windows","10.0","447d70a80c75dce987d9c5508038710f",""
"139","1071","1","[{""page_index"":0,""viewing_time"":2470.399999976158}]","2470.5","instructions","5","269021","0.0-5.0","""","""","""","""","2021-12-02 19:26:01","Mozilla/5.0 (Windows NT 10.0; Win64; x64) AppleWebKit/537.36 (KHTML, like Gecko) Chrome/96.0.4664.45 Safari/537.36","WebKit","Chrome","96.0.4664.45","Windows","10.0","447d70a80c75dce987d9c5508038710f",""
"140","1071","1","""","98800","survey-likert","6","367823","0.0-6.0","{""ap_people_all_8"":0,""ap_tonedeaf_12"":0,""ap_trained_ap_11"":0,""rp_impaired_2"":3,""ap_normal_13"":0,""rp_trained_ap_4"":2,""re_people_al_1"":2,""rp_tonedeaf_5"":1,""ap_impaired_9"":4,""rp_better_others_7"":6,""ap_better_others_14"":5,""rp_override_3"":5,""rp_normal_6"":1,""ap_override_10"":5}","[7,11,10,1,12,3,0,4,8,6,13,2,5,9]","""","""","2021-12-02 19:26:01","Mozilla/5.0 (Windows NT 10.0; Win64; x64) AppleWebKit/537.36 (KHTML, like Gecko) Chrome/96.0.4664.45 Safari/537.36","WebKit","Chrome","96.0.4664.45","Windows","10.0","447d70a80c75dce987d9c5508038710f",""
"141","1071","1","[{""page_index"":0,""viewing_time"":3619.899999976158}]","3620.2000000476837","instructions","7","371445","0.0-7.0","""","""","""","""","2021-12-02 19:26:01","Mozilla/5.0 (Windows NT 10.0; Win64; x64) AppleWebKit/537.36 (KHTML, like Gecko) Chrome/96.0.4664.45 Safari/537.36","WebKit","Chrome","96.0.4664.45","Windows","10.0","447d70a80c75dce987d9c5508038710f",""
"142","1071","1","[{""page_index"":0,""viewing_time"":2071.2999999523163}]","2071.600000023842","instructions","8","373517","0.0-8.0","""","""","""","""","2021-12-02 19:26:01","Mozilla/5.0 (Windows NT 10.0; Win64; x64) AppleWebKit/537.36 (KHTML, like Gecko) Chrome/96.0.4664.45 Safari/537.36","WebKit","Chrome","96.0.4664.45","Windows","10.0","447d70a80c75dce987d9c5508038710f",""
"143","1071","1","""","11294.100000023842","html-slider-response","9","384813","0.0-9.0","26","""","<p></p>","50","2021-12-02 19:26:01","Mozilla/5.0 (Windows NT 10.0; Win64; x64) AppleWebKit/537.36 (KHTML, like Gecko) Chrome/96.0.4664.45 Safari/537.36","WebKit","Chrome","96.0.4664.45","Windows","10.0","447d70a80c75dce987d9c5508038710f",""
"144","1071","1","""","8398.600000023842","html-slider-response","10","393213","0.0-10.0","0","""","<p></p>","50","2021-12-02 19:26:01","Mozilla/5.0 (Windows NT 10.0; Win64; x64) AppleWebKit/537.36 (KHTML, like Gecko) Chrome/96.0.4664.45 Safari/537.36","WebKit","Chrome","96.0.4664.45","Windows","10.0","447d70a80c75dce987d9c5508038710f",""
"145","1071","1","""","20734.600000023842","survey-likert","11","413949","0.0-11.0","{""inst_priority_ap_01"":0,""inst_priority_rp_02"":3,""you_priority_ap_03"":0,""you_priority_rp_04"":3}","[0,1,2,3]","""","""","2021-12-02 19:26:01","Mozilla/5.0 (Windows NT 10.0; Win64; x64) AppleWebKit/537.36 (KHTML, like Gecko) Chrome/96.0.4664.45 Safari/537.36","WebKit","Chrome","96.0.4664.45","Windows","10.0","447d70a80c75dce987d9c5508038710f",""
"146","1071","1","""","54549.799999952316","survey-text","12","468500","0.0-12.0","{""Q0"":""I direct a choir, and we start each rehearsal by finding an A without a reference pitch. I hold up a hand sign and the students audiate then sing. ""}","""","""","""","2021-12-02 19:26:01","Mozilla/5.0 (Windows NT 10.0; Win64; x64) AppleWebKit/537.36 (KHTML, like Gecko) Chrome/96.0.4664.45 Safari/537.36","WebKit","Chrome","96.0.4664.45","Windows","10.0","447d70a80c75dce987d9c5508038710f",""
"147","1071","1","""","19278.699999928474","survey-likert","13","487780","0.0-13.0","{""use_skill_freq_01"":6,""easy_teach_02"":6,""easy_to_learn_03"":5,""helps_relative_04"":6,""reps_relative_05"":6}","[0,1,2,3,4]","""","""","2021-12-02 19:26:01","Mozilla/5.0 (Windows NT 10.0; Win64; x64) AppleWebKit/537.36 (KHTML, like Gecko) Chrome/96.0.4664.45 Safari/537.36","WebKit","Chrome","96.0.4664.45","Windows","10.0","447d70a80c75dce987d9c5508038710f",""
"148","1071","1","""","87861.39999997616","survey-text","14","575643","0.0-14.0","{""Q0"":""When I teach my music education majors to lead sight singing exercises, we practice finding an A as I described in my previous response. Then from there, the students identify what that A represents in the sightsinging exercise they're about to start. From there they find Do and carry on with the exercise. ""}","""","""","""","2021-12-02 19:26:01","Mozilla/5.0 (Windows NT 10.0; Win64; x64) AppleWebKit/537.36 (KHTML, like Gecko) Chrome/96.0.4664.45 Safari/537.36","WebKit","Chrome","96.0.4664.45","Windows","10.0","447d70a80c75dce987d9c5508038710f",""
"149","1071","1","""","11774.200000047684","survey-likert","15","587420","0.0-15.0","{""use_skill_freq_01"":4,""easy_teach_02"":6,""easy_to_learn_03"":6,""helps_relative_04"":6,""reps_relative_05"":6}","[0,1,2,3,4]","""","""","2021-12-02 19:26:01","Mozilla/5.0 (Windows NT 10.0; Win64; x64) AppleWebKit/537.36 (KHTML, like Gecko) Chrome/96.0.4664.45 Safari/537.36","WebKit","Chrome","96.0.4664.45","Windows","10.0","447d70a80c75dce987d9c5508038710f",""
"150","1071","1","""","30365.200000047684","survey-text","16","617787","0.0-16.0","{""Q0"":""A choir directed by a colleague uses tuning forks instead of a piano. The students constantly are finding their pitches during rehearsal from a tuning fork A. ""}","""","""","""","2021-12-02 19:26:01","Mozilla/5.0 (Windows NT 10.0; Win64; x64) AppleWebKit/537.36 (KHTML, like Gecko) Chrome/96.0.4664.45 Safari/537.36","WebKit","Chrome","96.0.4664.45","Windows","10.0","447d70a80c75dce987d9c5508038710f",""
"151","1071","1","""","14558.799999952316","survey-likert","17","632347","0.0-17.0","{""use_skill_freq_01"":1,""easy_teach_02"":5,""easy_to_learn_03"":5,""helps_relative_04"":6,""reps_relative_05"":6}","[0,1,2,3,4]","""","""","2021-12-02 19:26:01","Mozilla/5.0 (Windows NT 10.0; Win64; x64) AppleWebKit/537.36 (KHTML, like Gecko) Chrome/96.0.4664.45 Safari/537.36","WebKit","Chrome","96.0.4664.45","Windows","10.0","447d70a80c75dce987d9c5508038710f",""
"152","1071","1","""","5302.599999904633","survey-text","18","637651","0.0-18.0","{""Q0"":""}","""","""","""","2021-12-02 19:26:01","Mozilla/5.0 (Windows NT 10.0; Win64; x64) AppleWebKit/537.36 (KHTML, like Gecko) Chrome/96.0.4664.45 Safari/537.36","WebKit","Chrome","96.0.4664.45","Windows","10.0","447d70a80c75dce987d9c5508038710f",""
"153","1071","1","""","1918.6000000238419","survey-likert","19","639572","0.0-19.0","{""use_skill_freq_01"":"",""easy_teach_02"":"",""easy_to_learn_03"":"",""helps_relative_04"":"",""reps_relative_05"":""}","[0,1,2,3,4]","""","""","2021-12-02 19:26:01","Mozilla/5.0 (Windows NT 10.0; Win64; x64) AppleWebKit/537.36 (KHTML, like Gecko) Chrome/96.0.4664.45 Safari/537.36","WebKit","Chrome","96.0.4664.45","Windows","10.0","447d70a80c75dce987d9c5508038710f",""
"154","1071","1","""","1085.3999999761581","survey-text","20","640659","0.0-20.0","{""Q0"":""}","""","""","""","2021-12-02 19:26:01","Mozilla/5.0 (Windows NT 10.0; Win64; x64) AppleWebKit/537.36 (KHTML, like Gecko) Chrome/96.0.4664.45 Safari/537.36","WebKit","Chrome","96.0.4664.45","Windows","10.0","447d70a80c75dce987d9c5508038710f",""
"155","1071","1","""","1687.4000000953674","survey-likert","21","642348","0.0-21.0","{""use_skill_freq_01"":"",""easy_teach_02"":"",""easy_to_learn_03"":"",""helps_relative_04"":"",""reps_relative_05"":""}","[0,1,2,3,4]","""","""","2021-12-02 19:26:01","Mozilla/5.0 (Windows NT 10.0; Win64; x64) AppleWebKit/537.36 (KHTML, like Gecko) Chrome/96.0.4664.45 Safari/537.36","WebKit","Chrome","96.0.4664.45","Windows","10.0","447d70a80c75dce987d9c5508038710f",""
"156","1071","1","[{""page_index"":0,""viewing_time"":1646.2000000476837}]","1646.3999999761581","instructions","22","643995","0.0-22.0","""","""","""","""","2021-12-02 19:26:01","Mozilla/5.0 (Windows NT 10.0; Win64; x64) AppleWebKit/537.36 (KHTML, like Gecko) Chrome/96.0.4664.45 Safari/537.36","WebKit","Chrome","96.0.4664.45","Windows","10.0","447d70a80c75dce987d9c5508038710f",""
"157","1071","1","""","191149.89999997616","survey-text","23","835146","0.0-23.0","{""Q0"":""My previous responses all center around retrieving an A and using it as a reference pitch. (All notes are then relative to A, resulting in relative pitch). Once an A is found, then you could start expanding all the relative pitch exercises to other notes. I think I feel comfortable saying that Absolute pitch is labeling upon hearing and producing upon request every pitch. So as was mentioned in the definitions section of this questionnaire, relative pitch CAN at some point become absolute pitch. It's a matter of having all the labels instead of a single reference point. ""}","""","""","""","2021-12-02 19:26:01","Mozilla/5.0 (Windows NT 10.0; Win64; x64) AppleWebKit/537.36 (KHTML, like Gecko) Chrome/96.0.4664.45 Safari/537.36","WebKit","Chrome","96.0.4664.45","Windows","10.0","447d70a80c75dce987d9c5508038710f",""
"158","1071","1","""","19726.799999952316","survey-likert","24","854874","0.0-24.0","{""teach_freq_ap_01"":1,""easy_teach_02"":1,""eash_learn_03"":1,""foster_ap_04"":6,""represent_ap_05"":6}","[0,1,2,3,4]","""","""","2021-12-02 19:26:01","Mozilla/5.0 (Windows NT 10.0; Win64; x64) AppleWebKit/537.36 (KHTML, like Gecko) Chrome/96.0.4664.45 Safari/537.36","WebKit","Chrome","96.0.4664.45","Windows","10.0","447d70a80c75dce987d9c5508038710f",""
"159","1071","1","""","1780.8999999761581","survey-text","25","856657","0.0-25.0","{""Q0"":""}","""","""","""","2021-12-02 19:26:01","Mozilla/5.0 (Windows NT 10.0; Win64; x64) AppleWebKit/537.36 (KHTML, like Gecko) Chrome/96.0.4664.45 Safari/537.36","WebKit","Chrome","96.0.4664.45","Windows","10.0","447d70a80c75dce987d9c5508038710f",""
"160","1071","1","""","1767.5","survey-likert","26","858426","0.0-26.0","{""teach_freq_ap_01"":"",""easy_teach_02"":"",""eash_learn_03"":"",""foster_ap_04"":"",""represent_ap_05"":""}","[0,1,2,3,4]","""","""","2021-12-02 19:26:01","Mozilla/5.0 (Windows NT 10.0; Win64; x64) AppleWebKit/537.36 (KHTML, like Gecko) Chrome/96.0.4664.45 Safari/537.36","WebKit","Chrome","96.0.4664.45","Windows","10.0","447d70a80c75dce987d9c5508038710f",""
"161","1071","1","""","853.6999999284744","survey-text","27","859281","0.0-27.0","{""Q0"":""}","""","""","""","2021-12-02 19:26:01","Mozilla/5.0 (Windows NT 10.0; Win64; x64) AppleWebKit/537.36 (KHTML, like Gecko) Chrome/96.0.4664.45 Safari/537.36","WebKit","Chrome","96.0.4664.45","Windows","10.0","447d70a80c75dce987d9c5508038710f",""
"162","1071","1","""","1559.5","survey-likert","28","860842","0.0-28.0","{""teach_freq_ap_01"":"",""easy_teach_02"":"",""eash_learn_03"":"",""foster_ap_04"":"",""represent_ap_05"":""}","[0,1,2,3,4]","""","""","2021-12-02 19:26:01","Mozilla/5.0 (Windows NT 10.0; Win64; x64) AppleWebKit/537.36 (KHTML, like Gecko) Chrome/96.0.4664.45 Safari/537.36","WebKit","Chrome","96.0.4664.45","Windows","10.0","447d70a80c75dce987d9c5508038710f",""
"163","1071","1","""","717.0999999046326","survey-text","29","861561","0.0-29.0","{""Q0"":""}","""","""","""","2021-12-02 19:26:01","Mozilla/5.0 (Windows NT 10.0; Win64; x64) AppleWebKit/537.36 (KHTML, like Gecko) Chrome/96.0.4664.45 Safari/537.36","WebKit","Chrome","96.0.4664.45","Windows","10.0","447d70a80c75dce987d9c5508038710f",""
"164","1071","1","""","1311.6000000238419","survey-likert","30","862874","0.0-30.0","{""teach_freq_ap_01"":"",""easy_teach_02"":"",""eash_learn_03"":"",""foster_ap_04"":"",""represent_ap_05"":""}","[0,1,2,3,4]","""","""","2021-12-02 19:26:01","Mozilla/5.0 (Windows NT 10.0; Win64; x64) AppleWebKit/537.36 (KHTML, like Gecko) Chrome/96.0.4664.45 Safari/537.36","WebKit","Chrome","96.0.4664.45","Windows","10.0","447d70a80c75dce987d9c5508038710f",""
"165","1071","1","""","661.7999999523163","survey-text","31","863537","0.0-31.0","{""Q0"":""}","""","""","""","2021-12-02 19:26:01","Mozilla/5.0 (Windows NT 10.0; Win64; x64) AppleWebKit/537.36 (KHTML, like Gecko) Chrome/96.0.4664.45 Safari/537.36","WebKit","Chrome","96.0.4664.45","Windows","10.0","447d70a80c75dce987d9c5508038710f",""
"166","1071","1","""","1591.5","survey-likert","32","865130","0.0-32.0","{""teach_freq_ap_01"":"",""easy_teach_02"":"",""eash_learn_03"":"",""foster_ap_04"":"",""represent_ap_05"":""}","[0,1,2,3,4]","""","""","2021-12-02 19:26:01","Mozilla/5.0 (Windows NT 10.0; Win64; x64) AppleWebKit/537.36 (KHTML, like Gecko) Chrome/96.0.4664.45 Safari/537.36","WebKit","Chrome","96.0.4664.45","Windows","10.0","447d70a80c75dce987d9c5508038710f",""
"167","1071","1","""","23845.799999952316","survey-text","33","888977","0.0-33.0","{""Q0"":""I don't currently teach aural skills. I teach a Fundamentals class. ""}","""","""","""","2021-12-02 19:26:01","Mozilla/5.0 (Windows NT 10.0; Win64; x64) AppleWebKit/537.36 (KHTML, like Gecko) Chrome/96.0.4664.45 Safari/537.36","WebKit","Chrome","96.0.4664.45","Windows","10.0","447d70a80c75dce987d9c5508038710f",""
"168","1071","1","""","12222","html-slider-response","34","901201","0.0-34.0","68","""","<p></p>","50","2021-12-02 19:26:01","Mozilla/5.0 (Windows NT 10.0; Win64; x64) AppleWebKit/537.36 (KHTML, like Gecko) Chrome/96.0.4664.45 Safari/537.36","WebKit","Chrome","96.0.4664.45","Windows","10.0","447d70a80c75dce987d9c5508038710f",""
"169","1071","1","""","28118.400000095367","survey-text","35","929320","0.0-35.0","{""Q0"":""n/a""}","""","""","""","2021-12-02 19:26:01","Mozilla/5.0 (Windows NT 10.0; Win64; x64) AppleWebKit/537.36 (KHTML, like Gecko) Chrome/96.0.4664.45 Safari/537.36","WebKit","Chrome","96.0.4664.45","Windows","10.0","447d70a80c75dce987d9c5508038710f",""
"170","1071","1","""","97109.60000002384","survey-text","36","1026431","0.0-36.0","{""Q0"":""Choir Builders (looping a four measure four part harmonization of a pop song on solfege); Solfege Echo Chain Singing Game; Add on Scale (Do, Do Re Do, Do Re Mi Re Do etc); Add-On Scale with rests on given syllables; ""}","""","""","""","2021-12-02 19:26:01","Mozilla/5.0 (Windows NT 10.0; Win64; x64) AppleWebKit/537.36 (KHTML, like Gecko) Chrome/96.0.4664.45 Safari/537.36","WebKit","Chrome","96.0.4664.45","Windows","10.0","447d70a80c75dce987d9c5508038710f",""
"171","1071","1","""","8095.100000023842","html-slider-response","37","1034527","0.0-37.0","50","""","<p></p>","50","2021-12-02 19:26:01","Mozilla/5.0 (Windows NT 10.0; Win64; x64) AppleWebKit/537.36 (KHTML, like Gecko) Chrome/96.0.4664.45 Safari/537.36","WebKit","Chrome","96.0.4664.45","Windows","10.0","447d70a80c75dce987d9c5508038710f",""
"172","1071","1","[{""page_index"":0,""viewing_time"":1510.3999999761581}]","1510.6000000238419","instructions","38","1036039","0.0-38.0","""","""","""","""","2021-12-02 19:26:01","Mozilla/5.0 (Windows NT 10.0; Win64; x64) AppleWebKit/537.36 (KHTML, like Gecko) Chrome/96.0.4664.45 Safari/537.36","WebKit","Chrome","96.0.4664.45","Windows","10.0","447d70a80c75dce987d9c5508038710f",""
"173","1071","1","[{""page_index"":0,""viewing_time"":1743.5}]","1743.7000000476837","instructions","39","1037783","0.0-39.0","""","""","""","""","2021-12-02 19:26:01","Mozilla/5.0 (Windows NT 10.0; Win64; x64) AppleWebKit/537.36 (KHTML, like Gecko) Chrome/96.0.4664.45 Safari/537.36","WebKit","Chrome","96.0.4664.45","Windows","10.0","447d70a80c75dce987d9c5508038710f",""
"174","1071","1","""","47866.10000002384","survey-multi-select","40","1085664","0.0-40.0","{""Colors"":[""Music theory (Remedial Undergraduate, Written)"",""Music courses for collegiate music majors not listed here""]}","[0]","""","""","2021-12-02 19:26:01","Mozilla/5.0 (Windows NT 10.0; Win64; x64) AppleWebKit/537.36 (KHTML, like Gecko) Chrome/96.0.4664.45 Safari/537.36","WebKit","Chrome","96.0.4664.45","Windows","10.0","447d70a80c75dce987d9c5508038710f",""
"175","1071","1","""","4988.5","survey-text","41","1090655","0.0-41.0","{""Q0"":""20""}","""","""","""","2021-12-02 19:26:01","Mozilla/5.0 (Windows NT 10.0; Win64; x64) AppleWebKit/537.36 (KHTML, like Gecko) Chrome/96.0.4664.45 Safari/537.36","WebKit","Chrome","96.0.4664.45","Windows","10.0","447d70a80c75dce987d9c5508038710f",""
"176","1071","1","""","15645.700000047684","survey-multi-select","42","1106303","0.0-42.0","{""Colors"":[""No Response""]}","[0]","""","""","2021-12-02 19:26:01","Mozilla/5.0 (Windows NT 10.0; Win64; x64) AppleWebKit/537.36 (KHTML, like Gecko) Chrome/96.0.4664.45 Safari/537.36","WebKit","Chrome","96.0.4664.45","Windows","10.0","447d70a80c75dce987d9c5508038710f",""
"177","1071","1","""","23365.600000023842","survey-text","43","1129671","0.0-43.0","{""Q0"":""8 (PhD in Choral conducting and Music Education) ""}","""","""","""","2021-12-02 19:26:01","Mozilla/5.0 (Windows NT 10.0; Win64; x64) AppleWebKit/537.36 (KHTML, like Gecko) Chrome/96.0.4664.45 Safari/537.36","WebKit","Chrome","96.0.4664.45","Windows","10.0","447d70a80c75dce987d9c5508038710f",""
"178","1071","1","""","24044.5","survey-multi-select","44","1153718","0.0-44.0","{""Colors"":[""Public institution"",""Music Department within a university"",""NASM-accredited music program""]}","[0]","""","""","2021-12-02 19:26:01","Mozilla/5.0 (Windows NT 10.0; Win64; x64) AppleWebKit/537.36 (KHTML, like Gecko) Chrome/96.0.4664.45 Safari/537.36","WebKit","Chrome","96.0.4664.45","Windows","10.0","447d70a80c75dce987d9c5508038710f",""
"179","1071","1","""","7453.899999976158","survey-multi-choice","45","1161174","0.0-45.0","{""Colors"":""Full-Time Tenured""}","[0]","""","""","2021-12-02 19:26:01","Mozilla/5.0 (Windows NT 10.0; Win64; x64) AppleWebKit/537.36 (KHTML, like Gecko) Chrome/96.0.4664.45 Safari/537.36","WebKit","Chrome","96.0.4664.45","Windows","10.0","447d70a80c75dce987d9c5508038710f",""
"180","1071","1","""","7678.599999904633","html-slider-response","46","1168854","0.0-46.0","57","""","<p></p>","50","2021-12-02 19:26:01","Mozilla/5.0 (Windows NT 10.0; Win64; x64) AppleWebKit/537.36 (KHTML, like Gecko) Chrome/96.0.4664.45 Safari/537.36","WebKit","Chrome","96.0.4664.45","Windows","10.0","447d70a80c75dce987d9c5508038710f",""
"181","1071","1","""","3854.399999976158","html-slider-response","47","1172710","0.0-47.0","100","""","<p></p>","50","2021-12-02 19:26:01","Mozilla/5.0 (Windows NT 10.0; Win64; x64) AppleWebKit/537.36 (KHTML, like Gecko) Chrome/96.0.4664.45 Safari/537.36","WebKit","Chrome","96.0.4664.45","Windows","10.0","447d70a80c75dce987d9c5508038710f",""
"182","1071","1","[{""page_index"":0,""viewing_time"":2023.2000000476837}]","2023.3000000715256","instructions","48","1174734","0.0-48.0","""","""","""","""","2021-12-02 19:26:01","Mozilla/5.0 (Windows NT 10.0; Win64; x64) AppleWebKit/537.36 (KHTML, like Gecko) Chrome/96.0.4664.45 Safari/537.36","WebKit","Chrome","96.0.4664.45","Windows","10.0","447d70a80c75dce987d9c5508038710f",""
"183","1071","1","""","4606.300000071526","survey-text","49","1179342","0.0-49.0","{""Q0"":""0""}","""","""","""","2021-12-02 19:26:01","Mozilla/5.0 (Windows NT 10.0; Win64; x64) AppleWebKit/537.36 (KHTML, like Gecko) Chrome/96.0.4664.45 Safari/537.36","WebKit","Chrome","96.0.4664.45","Windows","10.0","447d70a80c75dce987d9c5508038710f",""
"184","1071","1","""","24277.600000023842","survey-multi-select","50","1203622","0.0-50.0","{""Colors"":[""Moveable-Do (La-based minor)"",""Curwen or Kodaly hand symbols""]}","[0]","""","""","2021-12-02 19:26:01","Mozilla/5.0 (Windows NT 10.0; Win64; x64) AppleWebKit/537.36 (KHTML, like Gecko) Chrome/96.0.4664.45 Safari/537.36","WebKit","Chrome","96.0.4664.45","Windows","10.0","447d70a80c75dce987d9c5508038710f",""
"185","1071","1","""","11525.5","survey-text","51","1215149","0.0-51.0","{""Q0"":""Atlanta, Ga""}","""","""","""","2021-12-02 19:26:01","Mozilla/5.0 (Windows NT 10.0; Win64; x64) AppleWebKit/537.36 (KHTML, like Gecko) Chrome/96.0.4664.45 Safari/537.36","WebKit","Chrome","96.0.4664.45","Windows","10.0","447d70a80c75dce987d9c5508038710f",""
"186","1071","1","""","10948.100000023842","survey-multi-select","52","1226101","0.0-52.0","{""Colors"":[""Moveable-Do (La-based minor)"",""Moveable-Do (Do-based minor)"",""Curwen or Kodaly hand symbols""]}","[0]","""","""","2021-12-02 19:26:01","Mozilla/5.0 (Windows NT 10.0; Win64; x64) AppleWebKit/537.36 (KHTML, like Gecko) Chrome/96.0.4664.45 Safari/537.36","WebKit","Chrome","96.0.4664.45","Windows","10.0","447d70a80c75dce987d9c5508038710f",""
"187","1071","1","""","6722.899999976158","survey-multi-select","53","1232829","0.0-53.0","{""Colors"":[""Moveable-Do (Do-based minor)"",""Curwen or Kodaly hand symbols""]}","[0]","""","""","2021-12-02 19:26:01","Mozilla/5.0 (Windows NT 10.0; Win64; x64) AppleWebKit/537.36 (KHTML, like Gecko) Chrome/96.0.4664.45 Safari/537.36","WebKit","Chrome","96.0.4664.45","Windows","10.0","447d70a80c75dce987d9c5508038710f",""
"188","1071","1","""","4958.300000071526","survey-text","54","1237789","0.0-54.0","{""Q0"":""0""}","""","""","""","2021-12-02 19:26:01","Mozilla/5.0 (Windows NT 10.0; Win64; x64) AppleWebKit/537.36 (KHTML, like Gecko) Chrome/96.0.4664.45 Safari/537.36","WebKit","Chrome","96.0.4664.45","Windows","10.0","447d70a80c75dce987d9c5508038710f",""
"189","1071","1","""","23622.299999952316","survey-multi-choice","55","1261413","0.0-55.0","{""theory_track_01"":""No"",""pitch_mem_02"":""Not Sure"",""score_transp_03"":""No""}","[0,1,2]","""","""","2021-12-02 19:26:01","Mozilla/5.0 (Windows NT 10.0; Win64; x64) AppleWebKit/537.36 (KHTML, like Gecko) Chrome/96.0.4664.45 Safari/537.36","WebKit","Chrome","96.0.4664.45","Windows","10.0","447d70a80c75dce987d9c5508038710f",""
"190","1071","1","""","18739.699999928474","survey-multi-select","56","1280157","0.0-56.0","{""Colors"":[""Private college or university"",""Music Department within a liberal arts college"",""Music Department within a university"",""NASM-accredited music program""]}","[0]","""","""","2021-12-02 19:26:01","Mozilla/5.0 (Windows NT 10.0; Win64; x64) AppleWebKit/537.36 (KHTML, like Gecko) Chrome/96.0.4664.45 Safari/537.36","WebKit","Chrome","96.0.4664.45","Windows","10.0","447d70a80c75dce987d9c5508038710f",""
"191","1071","1","""","7397.200000047684","survey-text","57","1287557","0.0-57.0","{""Q0"":""750""}","""","""","""","2021-12-02 19:26:01","Mozilla/5.0 (Windows NT 10.0; Win64; x64) AppleWebKit/537.36 (KHTML, like Gecko) Chrome/96.0.4664.45 Safari/537.36","WebKit","Chrome","96.0.4664.45","Windows","10.0","447d70a80c75dce987d9c5508038710f",""
"192","1071","1","""","16722.5","survey-multi-select","58","1304285","0.0-58.0","{""Colors"":[""Undergraduate music minor"",""Bachelor of Arts (BA)"",""Bachelor of Music (BM)"",""Masters (MM)""]}","[0]","""","""","2021-12-02 19:26:01","Mozilla/5.0 (Windows NT 10.0; Win64; x64) AppleWebKit/537.36 (KHTML, like Gecko) Chrome/96.0.4664.45 Safari/537.36","WebKit","Chrome","96.0.4664.45","Windows","10.0","447d70a80c75dce987d9c5508038710f",""
"193","1071","1","""","14259.300000071526","survey-multi-select","59","1318549","0.0-59.0","{""Colors"":[""Part-time adjuncts"",""Full-time non-tenure eligible""]}","[0]","""","""","2021-12-02 19:26:01","Mozilla/5.0 (Windows NT 10.0; Win64; x64) AppleWebKit/537.36 (KHTML, like Gecko) Chrome/96.0.4664.45 Safari/537.36","WebKit","Chrome","96.0.4664.45","Windows","10.0","447d70a80c75dce987d9c5508038710f",""
"194","1071","1","""","13438.200000047684","survey-multi-select","60","1331989","0.0-60.0","{""Colors"":[""No Response""]}","[0]","""","""","2021-12-02 19:26:01","Mozilla/5.0 (Windows NT 10.0; Win64; x64) AppleWebKit/537.36 (KHTML, like Gecko) Chrome/96.0.4664.45 Safari/537.36","WebKit","Chrome","96.0.4664.45","Windows","10.0","447d70a80c75dce987d9c5508038710f",""
"195","1071","1","""","6829.200000047684","survey-text","61","1338820","0.0-61.0","{""Q0"":""United States""}","""","""","""","2021-12-02 19:26:01","Mozilla/5.0 (Windows NT 10.0; Win64; x64) AppleWebKit/537.36 (KHTML, like Gecko) Chrome/96.0.4664.45 Safari/537.36","WebKit","Chrome","96.0.4664.45","Windows","10.0","447d70a80c75dce987d9c5508038710f",""
"196","1071","1","""","5438.5","survey-text","62","1344260","0.0-62.0","{""Q0"":""Tennessee""}","""","""","""","2021-12-02 19:26:01","Mozilla/5.0 (Windows NT 10.0; Win64; x64) AppleWebKit/537.36 (KHTML, like Gecko) Chrome/96.0.4664.45 Safari/537.36","WebKit","Chrome","96.0.4664.45","Windows","10.0","447d70a80c75dce987d9c5508038710f",""
"197","1071","1","""","2726","survey-text","63","1346988","0.0-63.0","{""Q0"":""}","""","""","""","2021-12-02 19:26:01","Mozilla/5.0 (Windows NT 10.0; Win64; x64) AppleWebKit/537.36 (KHTML, like Gecko) Chrome/96.0.4664.45 Safari/537.36","WebKit","Chrome","96.0.4664.45","Windows","10.0","447d70a80c75dce987d9c5508038710f",""
"198","1071","1","[{""page_index"":0,""viewing_time"":1359.2999999523163}]","1359.5","instructions","64","1348348","0.0-64.0","""","""","""","""","2021-12-02 19:26:01","Mozilla/5.0 (Windows NT 10.0; Win64; x64) AppleWebKit/537.36 (KHTML, like Gecko) Chrome/96.0.4664.45 Safari/537.36","WebKit","Chrome","96.0.4664.45","Windows","10.0","447d70a80c75dce987d9c5508038710f",""
"199","1081","1","[{""page_index"":0,""viewing_time"":48918.700000047684},{""page_index"":1,""viewing_time"":7515.399999856949},{""page_index"":2,""viewing_time"":5393.5}]","61833.09999990463","instructions","0","61882","0.0-0.0","""","""","""","""","2021-12-02 21:33:15","Mozilla/5.0 (Macintosh; Intel Mac OS X 10_15_7) AppleWebKit/537.36 (KHTML, like Gecko) Chrome/95.0.4638.69 Safari/537.36","Macintosh","Chrome","95.0.4638.69","OS X","10_15_7","447d70a80c75dce987d9c5508038710f",""
"200","1081","1","[{""page_index"":0,""viewing_time"":2139}]","2139.300000190735","instructions","1","64031","0.0-1.0","""","""","""","""","2021-12-02 21:33:15","Mozilla/5.0 (Macintosh; Intel Mac OS X 10_15_7) AppleWebKit/537.36 (KHTML, like Gecko) Chrome/95.0.4638.69 Safari/537.36","Macintosh","Chrome","95.0.4638.69","OS X","10_15_7","447d70a80c75dce987d9c5508038710f",""
"201","1081","1","""","409426.40000009537","survey-likert","2","473486","0.0-2.0","{""rp_produce_abref_11"":0,""rp_name_relation_06"":5,""rp_perceive_same_07"":1,""ap_name_abref_25"":6,""ap_ref_tonal_15"":1,""rp_name_abref_10"":0,""ap_id_interval_18"":1,""ap_id_440_23"":3,""ap_produce_interval_19"":1,""rp_produce_tonality_02"":1,""ap_remember_group_27"":2,""rp_produce_interval_05"":1,""ap_ref_tonal_03"":0,""rp_produce_440_09"":1,""rp_lose_13"":4,""rp_id_interval_04"":4,""ap_perceive_same_21"":1,""ap_ref_tonal_16"":6,""ap_name_relation_20"":1,""ap_produce_440_24"":0,""rp_ref_tonal_01"":6,""ap_produce_tonality_17"":0,""rp_remember_group_12"":1,""rp_to_ap_14"":5,""ap_produce_abref_26"":0,""ap_lose_28"":4,""ap_to_rp_22"":1,""rp_id_44_08"":4}","[10,5,6,24,14,9,17,22,18,1,26,4,2,8,12,3,20,15,19,23,0,16,11,13,25,27,21,7]","""","""","2021-12-02 21:33:15","Mozilla/5.0 (Macintosh; Intel Mac OS X 10_15_7) AppleWebKit/537.36 (KHTML, like Gecko) Chrome/95.0.4638.69 Safari/537.36","Macintosh","Chrome","95.0.4638.69","OS X","10_15_7","447d70a80c75dce987d9c5508038710f",""
"202","1081","1","""","401580","survey-text","3","875086","0.0-3.0","{""Q0"":""Not Applicable""}","""","""","""","2021-12-02 21:33:15","Mozilla/5.0 (Macintosh; Intel Mac OS X 10_15_7) AppleWebKit/537.36 (KHTML, like Gecko) Chrome/95.0.4638.69 Safari/537.36","Macintosh","Chrome","95.0.4638.69","OS X","10_15_7","447d70a80c75dce987d9c5508038710f",""
"203","1081","1","""","191223","survey-text","4","1066309","0.0-4.0","{""Q0"":""Absolute pitch is the ability to identify pitches within 12-tone equal temperament based on A=440 without an audible reference tone.  ""}","""","""","""","2021-12-02 21:33:15","Mozilla/5.0 (Macintosh; Intel Mac OS X 10_15_7) AppleWebKit/537.36 (KHTML, like Gecko) Chrome/95.0.4638.69 Safari/537.36","Macintosh","Chrome","95.0.4638.69","OS X","10_15_7","447d70a80c75dce987d9c5508038710f",""
"204","1081","1","[{""page_index"":0,""viewing_time"":4131.599999904633}]","4133","instructions","5","1070445","0.0-5.0","""","""","""","""","2021-12-02 21:33:15","Mozilla/5.0 (Macintosh; Intel Mac OS X 10_15_7) AppleWebKit/537.36 (KHTML, like Gecko) Chrome/95.0.4638.69 Safari/537.36","Macintosh","Chrome","95.0.4638.69","OS X","10_15_7","447d70a80c75dce987d9c5508038710f",""
"205","1081","1","""","121020.70000004768","survey-likert","6","1191473","0.0-6.0","{""ap_trained_ap_11"":0,""rp_better_others_7"":6,""rp_normal_6"":0,""ap_impaired_9"":6,""re_people_al_1"":2,""rp_trained_ap_4"":2,""ap_better_others_14"":6,""rp_tonedeaf_5"":0,""ap_override_10"":5,""ap_people_all_8"":0,""rp_override_3"":3,""ap_tonedeaf_12"":0,""ap_normal_13"":0,""rp_impaired_2"":1}","[10,6,5,8,0,3,13,4,9,7,2,11,12,1]","""","""","2021-12-02 21:33:15","Mozilla/5.0 (Macintosh; Intel Mac OS X 10_15_7) AppleWebKit/537.36 (KHTML, like Gecko) Chrome/95.0.4638.69 Safari/537.36","Macintosh","Chrome","95.0.4638.69","OS X","10_15_7","447d70a80c75dce987d9c5508038710f",""
"206","1081","1","[{""page_index"":0,""viewing_time"":3724.9000000953674}]","3725.5","instructions","7","1195202","0.0-7.0","""","""","""","""","2021-12-02 21:33:15","Mozilla/5.0 (Macintosh; Intel Mac OS X 10_15_7) AppleWebKit/537.36 (KHTML, like Gecko) Chrome/95.0.4638.69 Safari/537.36","Macintosh","Chrome","95.0.4638.69","OS X","10_15_7","447d70a80c75dce987d9c5508038710f",""
"207","1081","1","[{""page_index"":0,""viewing_time"":3272.9000000953674}]","3273.2000000476837","instructions","8","1198476","0.0-8.0","""","""","""","""","2021-12-02 21:33:15","Mozilla/5.0 (Macintosh; Intel Mac OS X 10_15_7) AppleWebKit/537.36 (KHTML, like Gecko) Chrome/95.0.4638.69 Safari/537.36","Macintosh","Chrome","95.0.4638.69","OS X","10_15_7","447d70a80c75dce987d9c5508038710f",""
"208","1081","1","""","27427.400000095367","html-slider-response","9","1225911","0.0-9.0","70","""","<p></p>","50","2021-12-02 21:33:15","Mozilla/5.0 (Macintosh; Intel Mac OS X 10_15_7) AppleWebKit/537.36 (KHTML, like Gecko) Chrome/95.0.4638.69 Safari/537.36","Macintosh","Chrome","95.0.4638.69","OS X","10_15_7","447d70a80c75dce987d9c5508038710f",""
"209","1081","1","""","9125.099999904633","html-slider-response","10","1235039","0.0-10.0","19","""","<p></p>","50","2021-12-02 21:33:15","Mozilla/5.0 (Macintosh; Intel Mac OS X 10_15_7) AppleWebKit/537.36 (KHTML, like Gecko) Chrome/95.0.4638.69 Safari/537.36","Macintosh","Chrome","95.0.4638.69","OS X","10_15_7","447d70a80c75dce987d9c5508038710f",""
"210","1081","1","""","27090.60000014305","survey-likert","11","1262136","0.0-11.0","{""inst_priority_ap_01"":1,""inst_priority_rp_02"":3,""you_priority_ap_03"":0,""you_priority_rp_04"":4}","[0,1,2,3]","""","""","2021-12-02 21:33:15","Mozilla/5.0 (Macintosh; Intel Mac OS X 10_15_7) AppleWebKit/537.36 (KHTML, like Gecko) Chrome/95.0.4638.69 Safari/537.36","Macintosh","Chrome","95.0.4638.69","OS X","10_15_7","447d70a80c75dce987d9c5508038710f",""
"211","1081","1","""","75577.79999995232","survey-text","12","1337722","0.0-12.0","{""Q0"":""Singing scale degrees over a drone. ""}","""","""","""","2021-12-02 21:33:15","Mozilla/5.0 (Macintosh; Intel Mac OS X 10_15_7) AppleWebKit/537.36 (KHTML, like Gecko) Chrome/95.0.4638.69 Safari/537.36","Macintosh","Chrome","95.0.4638.69","OS X","10_15_7","447d70a80c75dce987d9c5508038710f",""
"212","1081","1","""","25134.39999985695","survey-likert","13","1362861","0.0-13.0","{""use_skill_freq_01"":6,""easy_teach_02"":5,""easy_to_learn_03"":5,""helps_relative_04"":6,""reps_relative_05"":6}","[0,1,2,3,4]","""","""","2021-12-02 21:33:15","Mozilla/5.0 (Macintosh; Intel Mac OS X 10_15_7) AppleWebKit/537.36 (KHTML, like Gecko) Chrome/95.0.4638.69 Safari/537.36","Macintosh","Chrome","95.0.4638.69","OS X","10_15_7","447d70a80c75dce987d9c5508038710f",""
"213","1081","1","""","55500.799999952316","survey-text","14","1418369","0.0-14.0","{""Q0"":""Taking melodic dictation over a drone. ""}","""","""","""","2021-12-02 21:33:15","Mozilla/5.0 (Macintosh; Intel Mac OS X 10_15_7) AppleWebKit/537.36 (KHTML, like Gecko) Chrome/95.0.4638.69 Safari/537.36","Macintosh","Chrome","95.0.4638.69","OS X","10_15_7","447d70a80c75dce987d9c5508038710f",""
"214","1081","1","""","24548","survey-likert","15","1442922","0.0-15.0","{""use_skill_freq_01"":4,""easy_teach_02"":4,""easy_to_learn_03"":3,""helps_relative_04"":6,""reps_relative_05"":6}","[0,1,2,3,4]","""","""","2021-12-02 21:33:15","Mozilla/5.0 (Macintosh; Intel Mac OS X 10_15_7) AppleWebKit/537.36 (KHTML, like Gecko) Chrome/95.0.4638.69 Safari/537.36","Macintosh","Chrome","95.0.4638.69","OS X","10_15_7","447d70a80c75dce987d9c5508038710f",""
"215","1081","1","""","233280","survey-text","16","1676213","0.0-16.0","{""Q0"":""Analyzing/labeling the scale degrees and/or intervals of melodies/songs which are very well known to the individual, in order to draw upon these specific examples to identify scale degrees/intervals in other contexts.  ""}","""","""","""","2021-12-02 21:33:15","Mozilla/5.0 (Macintosh; Intel Mac OS X 10_15_7) AppleWebKit/537.36 (KHTML, like Gecko) Chrome/95.0.4638.69 Safari/537.36","Macintosh","Chrome","95.0.4638.69","OS X","10_15_7","447d70a80c75dce987d9c5508038710f",""
"216","1081","1","""","41330.90000009537","survey-likert","17","1717549","0.0-17.0","{""use_skill_freq_01"":5,""easy_teach_02"":4,""easy_to_learn_03"":3,""helps_relative_04"":6,""reps_relative_05"":6}","[0,1,2,3,4]","""","""","2021-12-02 21:33:15","Mozilla/5.0 (Macintosh; Intel Mac OS X 10_15_7) AppleWebKit/537.36 (KHTML, like Gecko) Chrome/95.0.4638.69 Safari/537.36","Macintosh","Chrome","95.0.4638.69","OS X","10_15_7","447d70a80c75dce987d9c5508038710f",""
"217","1081","1","""","43884.60000014305","survey-text","18","1761439","0.0-18.0","{""Q0"":""Singing with a relative syllable system (e.g., moveable solfege or scale degree numbers)""}","""","""","""","2021-12-02 21:33:15","Mozilla/5.0 (Macintosh; Intel Mac OS X 10_15_7) AppleWebKit/537.36 (KHTML, like Gecko) Chrome/95.0.4638.69 Safari/537.36","Macintosh","Chrome","95.0.4638.69","OS X","10_15_7","447d70a80c75dce987d9c5508038710f",""
"218","1081","1","""","22801.400000095367","survey-likert","19","1784272","0.0-19.0","{""use_skill_freq_01"":6,""easy_teach_02"":5,""easy_to_learn_03"":4,""helps_relative_04"":6,""reps_relative_05"":6}","[0,1,2,3,4]","""","""","2021-12-02 21:33:15","Mozilla/5.0 (Macintosh; Intel Mac OS X 10_15_7) AppleWebKit/537.36 (KHTML, like Gecko) Chrome/95.0.4638.69 Safari/537.36","Macintosh","Chrome","95.0.4638.69","OS X","10_15_7","447d70a80c75dce987d9c5508038710f",""
"219","1081","1","""","143992.69999980927","survey-text","20","1928288","0.0-20.0","{""Q0"":""Not identifying the key or name of a reference pitch when giving melodic/harmonic dictation. Instead, labeling a reference pitch by scale degree or giving no label at all. ""}","""","""","""","2021-12-02 21:33:15","Mozilla/5.0 (Macintosh; Intel Mac OS X 10_15_7) AppleWebKit/537.36 (KHTML, like Gecko) Chrome/95.0.4638.69 Safari/537.36","Macintosh","Chrome","95.0.4638.69","OS X","10_15_7","447d70a80c75dce987d9c5508038710f",""
"220","1081","1","""","25683.800000190735","survey-likert","21","1953982","0.0-21.0","{""use_skill_freq_01"":6,""easy_teach_02"":5,""easy_to_learn_03"":5,""helps_relative_04"":6,""reps_relative_05"":6}","[0,1,2,3,4]","""","""","2021-12-02 21:33:15","Mozilla/5.0 (Macintosh; Intel Mac OS X 10_15_7) AppleWebKit/537.36 (KHTML, like Gecko) Chrome/95.0.4638.69 Safari/537.36","Macintosh","Chrome","95.0.4638.69","OS X","10_15_7","447d70a80c75dce987d9c5508038710f",""
"221","1081","1","[{""page_index"":0,""viewing_time"":2658.899999856949}]","2659.2999999523163","instructions","22","1956643","0.0-22.0","""","""","""","""","2021-12-02 21:33:15","Mozilla/5.0 (Macintosh; Intel Mac OS X 10_15_7) AppleWebKit/537.36 (KHTML, like Gecko) Chrome/95.0.4638.69 Safari/537.36","Macintosh","Chrome","95.0.4638.69","OS X","10_15_7","447d70a80c75dce987d9c5508038710f",""
"222","1081","1","""","64567.59999990463","survey-text","23","2021216","0.0-23.0","{""Q0"":""Sing A440 from memory on cue with no audible reference.""}","""","""","""","2021-12-02 21:33:15","Mozilla/5.0 (Macintosh; Intel Mac OS X 10_15_7) AppleWebKit/537.36 (KHTML, like Gecko) Chrome/95.0.4638.69 Safari/537.36","Macintosh","Chrome","95.0.4638.69","OS X","10_15_7","447d70a80c75dce987d9c5508038710f",""
"223","1081","1","""","23133.300000190735","survey-likert","24","2044353","0.0-24.0","{""teach_freq_ap_01"":6,""easy_teach_02"":6,""eash_learn_03"":5,""foster_ap_04"":5,""represent_ap_05"":6}","[0,1,2,3,4]","""","""","2021-12-02 21:33:15","Mozilla/5.0 (Macintosh; Intel Mac OS X 10_15_7) AppleWebKit/537.36 (KHTML, like Gecko) Chrome/95.0.4638.69 Safari/537.36","Macintosh","Chrome","95.0.4638.69","OS X","10_15_7","447d70a80c75dce987d9c5508038710f",""
"224","1081","1","""","111207","survey-text","25","2155569","0.0-25.0","{""Q0"":""Playing call and response with instruments. In other words, the instructor sings or plays something on an instrument, and the students play it back by ear using their preferred musical instrument (but not by singing).  ""}","""","""","""","2021-12-02 21:33:15","Mozilla/5.0 (Macintosh; Intel Mac OS X 10_15_7) AppleWebKit/537.36 (KHTML, like Gecko) Chrome/95.0.4638.69 Safari/537.36","Macintosh","Chrome","95.0.4638.69","OS X","10_15_7","447d70a80c75dce987d9c5508038710f",""
"225","1081","1","""","17625.900000095367","survey-likert","26","2173200","0.0-26.0","{""teach_freq_ap_01"":4,""easy_teach_02"":4,""eash_learn_03"":2,""foster_ap_04"":5,""represent_ap_05"":5}","[0,1,2,3,4]","""","""","2021-12-02 21:33:15","Mozilla/5.0 (Macintosh; Intel Mac OS X 10_15_7) AppleWebKit/537.36 (KHTML, like Gecko) Chrome/95.0.4638.69 Safari/537.36","Macintosh","Chrome","95.0.4638.69","OS X","10_15_7","447d70a80c75dce987d9c5508038710f",""
"226","1081","1","""","140229.90000009537","survey-text","27","2313444","0.0-27.0","{""Q0"":""Singing very well-known pop songs from memory. The songs should be very well-known from a specific recording/artist. ""}","""","""","""","2021-12-02 21:33:15","Mozilla/5.0 (Macintosh; Intel Mac OS X 10_15_7) AppleWebKit/537.36 (KHTML, like Gecko) Chrome/95.0.4638.69 Safari/537.36","Macintosh","Chrome","95.0.4638.69","OS X","10_15_7","447d70a80c75dce987d9c5508038710f",""
"227","1081","1","""","50374.299999952316","survey-likert","28","2363823","0.0-28.0","{""teach_freq_ap_01"":1,""easy_teach_02"":3,""eash_learn_03"":3,""foster_ap_04"":4,""represent_ap_05"":4}","[0,1,2,3,4]","""","""","2021-12-02 21:33:15","Mozilla/5.0 (Macintosh; Intel Mac OS X 10_15_7) AppleWebKit/537.36 (KHTML, like Gecko) Chrome/95.0.4638.69 Safari/537.36","Macintosh","Chrome","95.0.4638.69","OS X","10_15_7","447d70a80c75dce987d9c5508038710f",""
"228","1081","1","""","69943.79999995232","survey-text","29","2433774","0.0-29.0","{""Q0"":""Singing melodies using fixed pitch names (e.g., note names like C,F, etc; or fixed Do syllables).""}","""","""","""","2021-12-02 21:33:15","Mozilla/5.0 (Macintosh; Intel Mac OS X 10_15_7) AppleWebKit/537.36 (KHTML, like Gecko) Chrome/95.0.4638.69 Safari/537.36","Macintosh","Chrome","95.0.4638.69","OS X","10_15_7","447d70a80c75dce987d9c5508038710f",""
"229","1081","1","""","35365.90000009537","survey-likert","30","2469144","0.0-30.0","{""teach_freq_ap_01"":2,""easy_teach_02"":2,""eash_learn_03"":1,""foster_ap_04"":6,""represent_ap_05"":6}","[0,1,2,3,4]","""","""","2021-12-02 21:33:15","Mozilla/5.0 (Macintosh; Intel Mac OS X 10_15_7) AppleWebKit/537.36 (KHTML, like Gecko) Chrome/95.0.4638.69 Safari/537.36","Macintosh","Chrome","95.0.4638.69","OS X","10_15_7","447d70a80c75dce987d9c5508038710f",""
"230","1081","1","""","58349.700000047684","survey-text","31","2527500","0.0-31.0","{""Q0"":""Identifying the name of reference pitch or key when giving melodic dictation.""}","""","""","""","2021-12-02 21:33:15","Mozilla/5.0 (Macintosh; Intel Mac OS X 10_15_7) AppleWebKit/537.36 (KHTML, like Gecko) Chrome/95.0.4638.69 Safari/537.36","Macintosh","Chrome","95.0.4638.69","OS X","10_15_7","447d70a80c75dce987d9c5508038710f",""
"231","1081","1","""","31566.5","survey-likert","32","2559072","0.0-32.0","{""teach_freq_ap_01"":2,""easy_teach_02"":2,""eash_learn_03"":2,""foster_ap_04"":5,""represent_ap_05"":4}","[0,1,2,3,4]","""","""","2021-12-02 21:33:15","Mozilla/5.0 (Macintosh; Intel Mac OS X 10_15_7) AppleWebKit/537.36 (KHTML, like Gecko) Chrome/95.0.4638.69 Safari/537.36","Macintosh","Chrome","95.0.4638.69","OS X","10_15_7","447d70a80c75dce987d9c5508038710f",""
"232","1081","1","""","112363","survey-text","33","2671442","0.0-33.0","{""Q0"":""world music folk songs, chorale-style melodies, pre-composed original melodies, melodies in different tuning systems, ""}","""","""","""","2021-12-02 21:33:15","Mozilla/5.0 (Macintosh; Intel Mac OS X 10_15_7) AppleWebKit/537.36 (KHTML, like Gecko) Chrome/95.0.4638.69 Safari/537.36","Macintosh","Chrome","95.0.4638.69","OS X","10_15_7","447d70a80c75dce987d9c5508038710f",""
"233","1081","1","""","23663.39999985695","html-slider-response","34","2695106","0.0-34.0","63","""","<p></p>","50","2021-12-02 21:33:15","Mozilla/5.0 (Macintosh; Intel Mac OS X 10_15_7) AppleWebKit/537.36 (KHTML, like Gecko) Chrome/95.0.4638.69 Safari/537.36","Macintosh","Chrome","95.0.4638.69","OS X","10_15_7","447d70a80c75dce987d9c5508038710f",""
"234","1081","1","""","30799.5","survey-text","35","2725915","0.0-35.0","{""Q0"":""more repertoire in diverse tuning systems""}","""","""","""","2021-12-02 21:33:15","Mozilla/5.0 (Macintosh; Intel Mac OS X 10_15_7) AppleWebKit/537.36 (KHTML, like Gecko) Chrome/95.0.4638.69 Safari/537.36","Macintosh","Chrome","95.0.4638.69","OS X","10_15_7","447d70a80c75dce987d9c5508038710f",""
"235","1081","1","""","139051.69999980927","survey-text","36","2864974","0.0-36.0","{""Q0"":""call and response singing, melodic improvisation, singing arpeggiated chord progressions,  melodic dictation with solfege instead of staff writing. ""}","""","""","""","2021-12-02 21:33:15","Mozilla/5.0 (Macintosh; Intel Mac OS X 10_15_7) AppleWebKit/537.36 (KHTML, like Gecko) Chrome/95.0.4638.69 Safari/537.36","Macintosh","Chrome","95.0.4638.69","OS X","10_15_7","447d70a80c75dce987d9c5508038710f",""
"236","1081","1","""","12330.800000190735","html-slider-response","37","2877308","0.0-37.0","61","""","<p></p>","50","2021-12-02 21:33:15","Mozilla/5.0 (Macintosh; Intel Mac OS X 10_15_7) AppleWebKit/537.36 (KHTML, like Gecko) Chrome/95.0.4638.69 Safari/537.36","Macintosh","Chrome","95.0.4638.69","OS X","10_15_7","447d70a80c75dce987d9c5508038710f",""
"237","1081","1","[{""page_index"":0,""viewing_time"":2167.800000190735}]","2168.5","instructions","38","2879477","0.0-38.0","""","""","""","""","2021-12-02 21:33:15","Mozilla/5.0 (Macintosh; Intel Mac OS X 10_15_7) AppleWebKit/537.36 (KHTML, like Gecko) Chrome/95.0.4638.69 Safari/537.36","Macintosh","Chrome","95.0.4638.69","OS X","10_15_7","447d70a80c75dce987d9c5508038710f",""
"238","1081","1","[{""page_index"":0,""viewing_time"":2961.4000000953674}]","2961.7000000476837","instructions","39","2882443","0.0-39.0","""","""","""","""","2021-12-02 21:33:15","Mozilla/5.0 (Macintosh; Intel Mac OS X 10_15_7) AppleWebKit/537.36 (KHTML, like Gecko) Chrome/95.0.4638.69 Safari/537.36","Macintosh","Chrome","95.0.4638.69","OS X","10_15_7","447d70a80c75dce987d9c5508038710f",""
