"","run_id","condition","view_history","rt","trial_type","trial_index","time_elapsed","internal_node_id","response","question_order","stimulus","slider_start","recorded_at","user_agent","device","browser","browser_version","platform","platform_version","source_code_version"
"1","1011","1","[{""page_index"":0,""viewing_time"":6569.599999997765},{""page_index"":1,""viewing_time"":28619.20000000298},{""page_index"":2,""viewing_time"":2226.099999997765}]","37416.199999999255","instructions","0","37425","0.0-0.0","""","""","""","""","2021-12-02 13:59:00","Mozilla/5.0 (Macintosh; Intel Mac OS X 10_15_7) AppleWebKit/537.36 (KHTML, like Gecko) Chrome/96.0.4664.55 Safari/537.36","Macintosh","Chrome","96.0.4664.55","OS X","10_15_7","447d70a80c75dce987d9c5508038710f"
"2","1011","1","[{""page_index"":0,""viewing_time"":1770.5999999977648}]","1770.800000000745","instructions","1","39203","0.0-1.0","""","""","""","""","2021-12-02 13:59:00","Mozilla/5.0 (Macintosh; Intel Mac OS X 10_15_7) AppleWebKit/537.36 (KHTML, like Gecko) Chrome/96.0.4664.55 Safari/537.36","Macintosh","Chrome","96.0.4664.55","OS X","10_15_7","447d70a80c75dce987d9c5508038710f"
"3","1011","1","""","306835.5","survey-likert","2","346055","0.0-2.0","{""rp_remember_group_12"":1,""rp_name_abref_10"":0,""ap_ref_tonal_03"":0,""rp_perceive_same_07"":6,""rp_produce_abref_11"":0,""rp_ref_tonal_01"":6,""ap_produce_interval_19"":0,""ap_id_440_23"":0,""rp_name_relation_06"":6,""ap_ref_tonal_16"":6,""ap_name_relation_20"":0,""ap_to_rp_22"":0,""ap_produce_tonality_17"":0,""ap_remember_group_27"":0,""rp_to_ap_14"":0,""rp_produce_tonality_02"":6,""rp_id_interval_04"":0,""ap_ref_tonal_15"":0,""ap_produce_abref_26"":6,""ap_id_interval_18"":0,""ap_produce_440_24"":3,""rp_lose_13"":4,""ap_perceive_same_21"":0,""ap_name_abref_25"":6,""rp_produce_interval_05"":0,""rp_produce_440_09"":5,""ap_lose_28"":7,""rp_id_44_08"":6}","[11,9,2,6,10,0,18,22,5,15,19,21,16,26,13,1,3,14,25,17,23,12,20,24,4,8,27,7]","""","""","2021-12-02 13:59:00","Mozilla/5.0 (Macintosh; Intel Mac OS X 10_15_7) AppleWebKit/537.36 (KHTML, like Gecko) Chrome/96.0.4664.55 Safari/537.36","Macintosh","Chrome","96.0.4664.55","OS X","10_15_7","447d70a80c75dce987d9c5508038710f"
"4","1011","1","""","50566.89999999851","survey-text","3","396649","0.0-3.0","{""Q0"":""The only thing I might add is that relative pitch is a skill that can be acquired over time and with practice.""}","""","""","""","2021-12-02 13:59:00","Mozilla/5.0 (Macintosh; Intel Mac OS X 10_15_7) AppleWebKit/537.36 (KHTML, like Gecko) Chrome/96.0.4664.55 Safari/537.36","Macintosh","Chrome","96.0.4664.55","OS X","10_15_7","447d70a80c75dce987d9c5508038710f"
"5","1011","1","""","12021.800000000745","survey-text","4","408677","0.0-4.0","{""Q0"":""Not Applicable""}","""","""","""","2021-12-02 13:59:00","Mozilla/5.0 (Macintosh; Intel Mac OS X 10_15_7) AppleWebKit/537.36 (KHTML, like Gecko) Chrome/96.0.4664.55 Safari/537.36","Macintosh","Chrome","96.0.4664.55","OS X","10_15_7","447d70a80c75dce987d9c5508038710f"
"6","1011","1","[{""page_index"":0,""viewing_time"":2330.800000000745}]","2331","instructions","5","411018","0.0-5.0","""","""","""","""","2021-12-02 13:59:00","Mozilla/5.0 (Macintosh; Intel Mac OS X 10_15_7) AppleWebKit/537.36 (KHTML, like Gecko) Chrome/96.0.4664.55 Safari/537.36","Macintosh","Chrome","96.0.4664.55","OS X","10_15_7","447d70a80c75dce987d9c5508038710f"
"7","1011","1","""","153071.90000000224","survey-likert","6","564098","0.0-6.0","{""ap_people_all_8"":0,""ap_normal_13"":2,""rp_override_3"":6,""rp_impaired_2"":0,""ap_impaired_9"":5,""ap_better_others_14"":6,""ap_tonedeaf_12"":0,""ap_trained_ap_11"":2,""re_people_al_1"":1,""rp_tonedeaf_5"":4,""rp_normal_6"":4,""rp_trained_ap_4"":5,""ap_override_10"":6,""rp_better_others_7"":6}","[7,12,2,1,8,13,11,10,0,4,5,3,9,6]","""","""","2021-12-02 13:59:00","Mozilla/5.0 (Macintosh; Intel Mac OS X 10_15_7) AppleWebKit/537.36 (KHTML, like Gecko) Chrome/96.0.4664.55 Safari/537.36","Macintosh","Chrome","96.0.4664.55","OS X","10_15_7","447d70a80c75dce987d9c5508038710f"
"8","1011","1","[{""page_index"":0,""viewing_time"":3602.60000000149}]","3602.800000000745","instructions","7","567704","0.0-7.0","""","""","""","""","2021-12-02 13:59:00","Mozilla/5.0 (Macintosh; Intel Mac OS X 10_15_7) AppleWebKit/537.36 (KHTML, like Gecko) Chrome/96.0.4664.55 Safari/537.36","Macintosh","Chrome","96.0.4664.55","OS X","10_15_7","447d70a80c75dce987d9c5508038710f"
"9","1011","1","[{""page_index"":0,""viewing_time"":1884.6000000014901}]","1884.9000000022352","instructions","8","569590","0.0-8.0","""","""","""","""","2021-12-02 13:59:00","Mozilla/5.0 (Macintosh; Intel Mac OS X 10_15_7) AppleWebKit/537.36 (KHTML, like Gecko) Chrome/96.0.4664.55 Safari/537.36","Macintosh","Chrome","96.0.4664.55","OS X","10_15_7","447d70a80c75dce987d9c5508038710f"
"10","1011","1","""","15402.400000002235","html-slider-response","9","584998","0.0-9.0","100","""","<p></p>","50","2021-12-02 13:59:00","Mozilla/5.0 (Macintosh; Intel Mac OS X 10_15_7) AppleWebKit/537.36 (KHTML, like Gecko) Chrome/96.0.4664.55 Safari/537.36","Macintosh","Chrome","96.0.4664.55","OS X","10_15_7","447d70a80c75dce987d9c5508038710f"
"11","1011","1","""","4715.199999999255","html-slider-response","10","589716","0.0-10.0","0","""","<p></p>","50","2021-12-02 13:59:00","Mozilla/5.0 (Macintosh; Intel Mac OS X 10_15_7) AppleWebKit/537.36 (KHTML, like Gecko) Chrome/96.0.4664.55 Safari/537.36","Macintosh","Chrome","96.0.4664.55","OS X","10_15_7","447d70a80c75dce987d9c5508038710f"
"12","1011","1","""","14452.20000000298","survey-likert","11","604172","0.0-11.0","{""inst_priority_ap_01"":0,""inst_priority_rp_02"":4,""you_priority_ap_03"":0,""you_priority_rp_04"":4}","[0,1,2,3]","""","""","2021-12-02 13:59:00","Mozilla/5.0 (Macintosh; Intel Mac OS X 10_15_7) AppleWebKit/537.36 (KHTML, like Gecko) Chrome/96.0.4664.55 Safari/537.36","Macintosh","Chrome","96.0.4664.55","OS X","10_15_7","447d70a80c75dce987d9c5508038710f"
"13","1011","1","""","57534.29999999702","survey-text","12","661716","0.0-12.0","{""Q0"":""Given a reference note or chord, students are asked to identify a given scale degree using a solfege syllable.""}","""","""","""","2021-12-02 13:59:00","Mozilla/5.0 (Macintosh; Intel Mac OS X 10_15_7) AppleWebKit/537.36 (KHTML, like Gecko) Chrome/96.0.4664.55 Safari/537.36","Macintosh","Chrome","96.0.4664.55","OS X","10_15_7","447d70a80c75dce987d9c5508038710f"
"14","1011","1","""","25473.5","survey-likert","13","687197","0.0-13.0","{""use_skill_freq_01"":3,""easy_teach_02"":6,""easy_to_learn_03"":5,""helps_relative_04"":6,""reps_relative_05"":6}","[0,1,2,3,4]","""","""","2021-12-02 13:59:00","Mozilla/5.0 (Macintosh; Intel Mac OS X 10_15_7) AppleWebKit/537.36 (KHTML, like Gecko) Chrome/96.0.4664.55 Safari/537.36","Macintosh","Chrome","96.0.4664.55","OS X","10_15_7","447d70a80c75dce987d9c5508038710f"
"15","1011","1","""","82812.69999999925","survey-text","14","770016","0.0-14.0","{""Q0"":""I write solfege syllables on the board and point to them in a random sequence, asking students to sing each scale degree after I point to it.""}","""","""","""","2021-12-02 13:59:00","Mozilla/5.0 (Macintosh; Intel Mac OS X 10_15_7) AppleWebKit/537.36 (KHTML, like Gecko) Chrome/96.0.4664.55 Safari/537.36","Macintosh","Chrome","96.0.4664.55","OS X","10_15_7","447d70a80c75dce987d9c5508038710f"
"16","1011","1","""","18100.89999999851","survey-likert","15","788124","0.0-15.0","{""use_skill_freq_01"":4,""easy_teach_02"":6,""easy_to_learn_03"":5,""helps_relative_04"":6,""reps_relative_05"":6}","[0,1,2,3,4]","""","""","2021-12-02 13:59:00","Mozilla/5.0 (Macintosh; Intel Mac OS X 10_15_7) AppleWebKit/537.36 (KHTML, like Gecko) Chrome/96.0.4664.55 Safari/537.36","Macintosh","Chrome","96.0.4664.55","OS X","10_15_7","447d70a80c75dce987d9c5508038710f"
"17","1011","1","""","109079.5","survey-text","16","897210","0.0-16.0","{""Q0"":""During melodic dictation exercises I ask students to recognize notes as scale degrees, and *then* to interpret those scale degrees as notes on the staff in the given key.""}","""","""","""","2021-12-02 13:59:00","Mozilla/5.0 (Macintosh; Intel Mac OS X 10_15_7) AppleWebKit/537.36 (KHTML, like Gecko) Chrome/96.0.4664.55 Safari/537.36","Macintosh","Chrome","96.0.4664.55","OS X","10_15_7","447d70a80c75dce987d9c5508038710f"
"18","1011","1","""","12524.800000000745","survey-likert","17","909745","0.0-17.0","{""use_skill_freq_01"":6,""easy_teach_02"":6,""easy_to_learn_03"":5,""helps_relative_04"":6,""reps_relative_05"":6}","[0,1,2,3,4]","""","""","2021-12-02 13:59:00","Mozilla/5.0 (Macintosh; Intel Mac OS X 10_15_7) AppleWebKit/537.36 (KHTML, like Gecko) Chrome/96.0.4664.55 Safari/537.36","Macintosh","Chrome","96.0.4664.55","OS X","10_15_7","447d70a80c75dce987d9c5508038710f"
"19","1011","1","""","152083.80000000075","survey-text","18","1061836","0.0-18.0","","","","","","","","","","","",""
"20","fa\"" going to \""mi.\"" This tension exists regardless of what key we happen to be working in.""""}""","""","""","""","2021-12-02 13:59:00","199.91.180.215","Mozilla/5.0 (Macintosh; Intel Mac OS X 10_15_7) AppleWebKit/537.36 (KHTML, like Gecko) Chrome/96.0.4664.55 Safari/537.36","Macintosh","Chrome","96.0.4664.55","OS X","10_15_7","447d70a80c75dce987d9c5508038710f","","","","","","",""
"21","1011","1","""","13245.10000000149","survey-likert","19","1075088","0.0-19.0","{""use_skill_freq_01"":6,""easy_teach_02"":6,""easy_to_learn_03"":5,""helps_relative_04"":6,""reps_relative_05"":6}","[0,1,2,3,4]","""","""","2021-12-02 13:59:00","Mozilla/5.0 (Macintosh; Intel Mac OS X 10_15_7) AppleWebKit/537.36 (KHTML, like Gecko) Chrome/96.0.4664.55 Safari/537.36","Macintosh","Chrome","96.0.4664.55","OS X","10_15_7","447d70a80c75dce987d9c5508038710f"
"22","1011","1","""","133294.30000000075","survey-text","20","1208390","0.0-20.0","","","","","","","","","","","",""
"23","do\"" at random"," preferring not to play the starting note at the piano. Students are then asked to establish a sense of tonic in relation to the aurally-given \""do.\"" Only *then* do we attempt singing the melody. In other words"," I don't care what key they actually sing in; I only care that they sing the right scale degrees at the right time.""""}""","""","""","""","2021-12-02 13:59:00","199.91.180.215","Mozilla/5.0 (Macintosh; Intel Mac OS X 10_15_7) AppleWebKit/537.36 (KHTML, like Gecko) Chrome/96.0.4664.55 Safari/537.36","Macintosh","Chrome","96.0.4664.55","OS X","447d70a80c75dce987d9c5508038710f","","","","","",""
"24","1011","1","""","12915","survey-likert","21","1221316","0.0-21.0","{""use_skill_freq_01"":6,""easy_teach_02"":5,""easy_to_learn_03"":5,""helps_relative_04"":6,""reps_relative_05"":6}","[0,1,2,3,4]","""","""","2021-12-02 13:59:00","Mozilla/5.0 (Macintosh; Intel Mac OS X 10_15_7) AppleWebKit/537.36 (KHTML, like Gecko) Chrome/96.0.4664.55 Safari/537.36","Macintosh","Chrome","96.0.4664.55","OS X","10_15_7","447d70a80c75dce987d9c5508038710f"
"25","1011","1","[{""page_index"":0,""viewing_time"":1886.5}]","1886.699999999255","instructions","22","1223206","0.0-22.0","""","""","""","""","2021-12-02 13:59:00","Mozilla/5.0 (Macintosh; Intel Mac OS X 10_15_7) AppleWebKit/537.36 (KHTML, like Gecko) Chrome/96.0.4664.55 Safari/537.36","Macintosh","Chrome","96.0.4664.55","OS X","10_15_7","447d70a80c75dce987d9c5508038710f"
"26","1011","1","""","38754.099999997765","survey-text","23","1261967","0.0-23.0","","","","","","","","","","","",""
"27","middle\"" C.""""}""","""","""","""","2021-12-02 13:59:00","199.91.180.215","Mozilla/5.0 (Macintosh; Intel Mac OS X 10_15_7) AppleWebKit/537.36 (KHTML, like Gecko) Chrome/96.0.4664.55 Safari/537.36","Macintosh","Chrome","96.0.4664.55","OS X","10_15_7","447d70a80c75dce987d9c5508038710f","","","","","","",""
"28","1011","1","""","25225.10000000149","survey-likert","24","1287195","0.0-24.0","{""teach_freq_ap_01"":0,""easy_teach_02"":1,""eash_learn_03"":0,""foster_ap_04"":6,""represent_ap_05"":6}","[0,1,2,3,4]","""","""","2021-12-02 13:59:00","Mozilla/5.0 (Macintosh; Intel Mac OS X 10_15_7) AppleWebKit/537.36 (KHTML, like Gecko) Chrome/96.0.4664.55 Safari/537.36","Macintosh","Chrome","96.0.4664.55","OS X","10_15_7","447d70a80c75dce987d9c5508038710f"
"29","1011","1","""","31374.10000000149","survey-text","25","1318579","0.0-25.0","{""Q0"":""I play a melody at the piano without telling students what key it is in. They are asked to notate it in the correct key.""}","""","""","""","2021-12-02 13:59:00","Mozilla/5.0 (Macintosh; Intel Mac OS X 10_15_7) AppleWebKit/537.36 (KHTML, like Gecko) Chrome/96.0.4664.55 Safari/537.36","Macintosh","Chrome","96.0.4664.55","OS X","10_15_7","447d70a80c75dce987d9c5508038710f"
"30","1011","1","""","20022.800000000745","survey-likert","26","1338614","0.0-26.0","{""teach_freq_ap_01"":0,""easy_teach_02"":8,""eash_learn_03"":8,""foster_ap_04"":6,""represent_ap_05"":6}","[0,1,2,3,4]","""","""","2021-12-02 13:59:00","Mozilla/5.0 (Macintosh; Intel Mac OS X 10_15_7) AppleWebKit/537.36 (KHTML, like Gecko) Chrome/96.0.4664.55 Safari/537.36","Macintosh","Chrome","96.0.4664.55","OS X","10_15_7","447d70a80c75dce987d9c5508038710f"
"31","1011","1","""","28756.29999999702","survey-text","27","1367376","0.0-27.0","{""Q0"":""I play a harmonic progression on the piano, without telling students what key it is in. Students are asked to notate the outer voices in the correct key.""}","""","""","""","2021-12-02 13:59:00","Mozilla/5.0 (Macintosh; Intel Mac OS X 10_15_7) AppleWebKit/537.36 (KHTML, like Gecko) Chrome/96.0.4664.55 Safari/537.36","Macintosh","Chrome","96.0.4664.55","OS X","10_15_7","447d70a80c75dce987d9c5508038710f"
"32","1011","1","""","12007.400000002235","survey-likert","28","1379387","0.0-28.0","{""teach_freq_ap_01"":0,""easy_teach_02"":8,""eash_learn_03"":8,""foster_ap_04"":6,""represent_ap_05"":6}","[0,1,2,3,4]","""","""","2021-12-02 13:59:00","Mozilla/5.0 (Macintosh; Intel Mac OS X 10_15_7) AppleWebKit/537.36 (KHTML, like Gecko) Chrome/96.0.4664.55 Safari/537.36","Macintosh","Chrome","96.0.4664.55","OS X","10_15_7","447d70a80c75dce987d9c5508038710f"
"33","1011","1","""","202147.19999999925","survey-text","29","1581549","0.0-29.0","","","","","","","","","","","",""
"34","drift","\"" with such drifts accumulating over the course of the row. Student performance is judged in part on how close their final sung pitch is to the actual note.""""}""","""","""","""","2021-12-02 13:59:00","199.91.180.215","Mozilla/5.0 (Macintosh; Intel Mac OS X 10_15_7) AppleWebKit/537.36 (KHTML, like Gecko) Chrome/96.0.4664.55 Safari/537.36","Macintosh","Chrome","96.0.4664.55","OS X","10_15_7","","","","","","",""
"35","1011","1","""","25887.099999997765","survey-likert","30","1607446","0.0-30.0","{""teach_freq_ap_01"":1,""easy_teach_02"":5,""eash_learn_03"":4,""foster_ap_04"":4,""represent_ap_05"":4}","[0,1,2,3,4]","""","""","2021-12-02 13:59:00","Mozilla/5.0 (Macintosh; Intel Mac OS X 10_15_7) AppleWebKit/537.36 (KHTML, like Gecko) Chrome/96.0.4664.55 Safari/537.36","Macintosh","Chrome","96.0.4664.55","OS X","10_15_7","447d70a80c75dce987d9c5508038710f"
"36","1011","1","""","257490.70000000298","survey-text","31","1864947","0.0-31.0","{""Q0"":""Using specialized software, I alter a recording of a well-known piece, transposing it up by some interval. I play that transposed version for students, asking them to identify the interval of transposition based solely on the difference between the notated key and the heard recording.""}","""","""","""","2021-12-02 13:59:00","Mozilla/5.0 (Macintosh; Intel Mac OS X 10_15_7) AppleWebKit/537.36 (KHTML, like Gecko) Chrome/96.0.4664.55 Safari/537.36","Macintosh","Chrome","96.0.4664.55","OS X","10_15_7","447d70a80c75dce987d9c5508038710f"
"37","1011","1","""","26677.89999999851","survey-likert","32","1891629","0.0-32.0","{""teach_freq_ap_01"":0,""easy_teach_02"":7,""eash_learn_03"":7,""foster_ap_04"":6,""represent_ap_05"":6}","[0,1,2,3,4]","""","""","2021-12-02 13:59:00","Mozilla/5.0 (Macintosh; Intel Mac OS X 10_15_7) AppleWebKit/537.36 (KHTML, like Gecko) Chrome/96.0.4664.55 Safari/537.36","Macintosh","Chrome","96.0.4664.55","OS X","10_15_7","447d70a80c75dce987d9c5508038710f"
"38","1011","1","""","95467.89999999851","survey-text","33","1987103","0.0-33.0","{""Q0"":""original melodies, melodies found in published (public domain) pieces, original harmonic progressions in SATB style, Bach chorales, original rhythms, Classical-era piano sonatas, etc.""}","""","""","""","2021-12-02 13:59:00","Mozilla/5.0 (Macintosh; Intel Mac OS X 10_15_7) AppleWebKit/537.36 (KHTML, like Gecko) Chrome/96.0.4664.55 Safari/537.36","Macintosh","Chrome","96.0.4664.55","OS X","10_15_7","447d70a80c75dce987d9c5508038710f"
"39","1011","1","""","9154.199999999255","html-slider-response","34","1996260","0.0-34.0","100","""","<p></p>","50","2021-12-02 13:59:00","Mozilla/5.0 (Macintosh; Intel Mac OS X 10_15_7) AppleWebKit/537.36 (KHTML, like Gecko) Chrome/96.0.4664.55 Safari/537.36","Macintosh","Chrome","96.0.4664.55","OS X","10_15_7","447d70a80c75dce987d9c5508038710f"
"40","1011","1","""","44827.699999999255","survey-text","35","2041095","0.0-35.0","{""Q0"":""rock/pop""}","""","""","""","2021-12-02 13:59:00","Mozilla/5.0 (Macintosh; Intel Mac OS X 10_15_7) AppleWebKit/537.36 (KHTML, like Gecko) Chrome/96.0.4664.55 Safari/537.36","Macintosh","Chrome","96.0.4664.55","OS X","10_15_7","447d70a80c75dce987d9c5508038710f"
"41","1011","1","""","85545.19999999925","survey-text","36","2126648","0.0-36.0","{""Q0"":""singing scale degrees as indicated using solfege hand signs, singing scale degrees as indicated by pointing to solfege syllables written on the board""}","""","""","""","2021-12-02 13:59:00","Mozilla/5.0 (Macintosh; Intel Mac OS X 10_15_7) AppleWebKit/537.36 (KHTML, like Gecko) Chrome/96.0.4664.55 Safari/537.36","Macintosh","Chrome","96.0.4664.55","OS X","10_15_7","447d70a80c75dce987d9c5508038710f"
"42","1011","1","""","6953.199999999255","html-slider-response","37","2133607","0.0-37.0","5","""","<p></p>","50","2021-12-02 13:59:00","Mozilla/5.0 (Macintosh; Intel Mac OS X 10_15_7) AppleWebKit/537.36 (KHTML, like Gecko) Chrome/96.0.4664.55 Safari/537.36","Macintosh","Chrome","96.0.4664.55","OS X","10_15_7","447d70a80c75dce987d9c5508038710f"
"43","1011","1","[{""page_index"":0,""viewing_time"":1588.9000000022352}]","1589.4000000022352","instructions","38","2135197","0.0-38.0","""","""","""","""","2021-12-02 13:59:00","Mozilla/5.0 (Macintosh; Intel Mac OS X 10_15_7) AppleWebKit/537.36 (KHTML, like Gecko) Chrome/96.0.4664.55 Safari/537.36","Macintosh","Chrome","96.0.4664.55","OS X","10_15_7","447d70a80c75dce987d9c5508038710f"
"44","1011","1","[{""page_index"":0,""viewing_time"":4332.300000000745}]","4332.60000000149","instructions","39","2139533","0.0-39.0","""","""","""","""","2021-12-02 13:59:00","Mozilla/5.0 (Macintosh; Intel Mac OS X 10_15_7) AppleWebKit/537.36 (KHTML, like Gecko) Chrome/96.0.4664.55 Safari/537.36","Macintosh","Chrome","96.0.4664.55","OS X","10_15_7","447d70a80c75dce987d9c5508038710f"
"45","1011","1","""","35285.699999999255","survey-multi-select","40","2174853","0.0-40.0","{""Colors"":[""Music theory (Remedial Undergraduate, Written)"",""Music theory (Remedial Undergraduate, Aural)"",""Music theory (First Year Undergraduate, Written)"",""Music theory (First Year Undergraduate, Aural)"",""Music theory (First Year Undergraduate, combined Theory and Aural)"",""Music theory (Second Year Undergraduate, Written)"",""Music theory (Second Year Undergraduate, Aural)"",""Music theory (Second Year Undergraduate, combined Theory and Aural)"",""Music theory (Junior/Senior upper-level courses, Written)"",""Music theory (Junior/Senior upper-level courses, Aural)"",""General education music courses for collegiate students""]}","[0]","""","""","2021-12-02 13:59:00","Mozilla/5.0 (Macintosh; Intel Mac OS X 10_15_7) AppleWebKit/537.36 (KHTML, like Gecko) Chrome/96.0.4664.55 Safari/537.36","Macintosh","Chrome","96.0.4664.55","OS X","10_15_7","447d70a80c75dce987d9c5508038710f"
"46","1011","1","""","9412.800000000745","survey-text","41","2184275","0.0-41.0","{""Q0"":""22""}","""","""","""","2021-12-02 13:59:00","Mozilla/5.0 (Macintosh; Intel Mac OS X 10_15_7) AppleWebKit/537.36 (KHTML, like Gecko) Chrome/96.0.4664.55 Safari/537.36","Macintosh","Chrome","96.0.4664.55","OS X","10_15_7","447d70a80c75dce987d9c5508038710f"
"47","1011","1","""","4864.39999999851","survey-multi-select","42","2189156","0.0-42.0","{""Colors"":[""Ph.D. in Music Theory""]}","[0]","""","""","2021-12-02 13:59:00","Mozilla/5.0 (Macintosh; Intel Mac OS X 10_15_7) AppleWebKit/537.36 (KHTML, like Gecko) Chrome/96.0.4664.55 Safari/537.36","Macintosh","Chrome","96.0.4664.55","OS X","10_15_7","447d70a80c75dce987d9c5508038710f"
"48","1011","1","""","9556","survey-text","43","2198723","0.0-43.0","{""Q0"":""16""}","""","""","""","2021-12-02 13:59:00","Mozilla/5.0 (Macintosh; Intel Mac OS X 10_15_7) AppleWebKit/537.36 (KHTML, like Gecko) Chrome/96.0.4664.55 Safari/537.36","Macintosh","Chrome","96.0.4664.55","OS X","10_15_7","447d70a80c75dce987d9c5508038710f"
"49","1011","1","""","39599.699999999255","survey-multi-select","44","2238334","0.0-44.0","{""Colors"":[""Public institution"",""Music Department within a university"",""NASM-accredited music program""]}","[0]","""","""","2021-12-02 13:59:00","Mozilla/5.0 (Macintosh; Intel Mac OS X 10_15_7) AppleWebKit/537.36 (KHTML, like Gecko) Chrome/96.0.4664.55 Safari/537.36","Macintosh","Chrome","96.0.4664.55","OS X","10_15_7","447d70a80c75dce987d9c5508038710f"
"50","1011","1","""","5486.5","survey-multi-choice","45","2243827","0.0-45.0","{""Colors"":""Full-Time Tenured""}","[0]","""","""","2021-12-02 13:59:00","Mozilla/5.0 (Macintosh; Intel Mac OS X 10_15_7) AppleWebKit/537.36 (KHTML, like Gecko) Chrome/96.0.4664.55 Safari/537.36","Macintosh","Chrome","96.0.4664.55","OS X","10_15_7","447d70a80c75dce987d9c5508038710f"
"51","1011","1","""","13125","html-slider-response","46","2256956","0.0-46.0","1","""","<p></p>","50","2021-12-02 13:59:00","Mozilla/5.0 (Macintosh; Intel Mac OS X 10_15_7) AppleWebKit/537.36 (KHTML, like Gecko) Chrome/96.0.4664.55 Safari/537.36","Macintosh","Chrome","96.0.4664.55","OS X","10_15_7","447d70a80c75dce987d9c5508038710f"
"52","1011","1","""","3725.800000000745","html-slider-response","47","2260685","0.0-47.0","100","""","<p></p>","50","2021-12-02 13:59:00","Mozilla/5.0 (Macintosh; Intel Mac OS X 10_15_7) AppleWebKit/537.36 (KHTML, like Gecko) Chrome/96.0.4664.55 Safari/537.36","Macintosh","Chrome","96.0.4664.55","OS X","10_15_7","447d70a80c75dce987d9c5508038710f"
"53","1011","1","[{""page_index"":0,""viewing_time"":1968}]","1968.300000000745","instructions","48","2262654","0.0-48.0","""","""","""","""","2021-12-02 13:59:00","Mozilla/5.0 (Macintosh; Intel Mac OS X 10_15_7) AppleWebKit/537.36 (KHTML, like Gecko) Chrome/96.0.4664.55 Safari/537.36","Macintosh","Chrome","96.0.4664.55","OS X","10_15_7","447d70a80c75dce987d9c5508038710f"
"54","1011","1","""","5581.699999999255","survey-text","49","2268241","0.0-49.0","{""Q0"":""16""}","""","""","""","2021-12-02 13:59:00","Mozilla/5.0 (Macintosh; Intel Mac OS X 10_15_7) AppleWebKit/537.36 (KHTML, like Gecko) Chrome/96.0.4664.55 Safari/537.36","Macintosh","Chrome","96.0.4664.55","OS X","10_15_7","447d70a80c75dce987d9c5508038710f"
"55","1011","1","""","21686.800000000745","survey-multi-select","50","2289939","0.0-50.0","{""Colors"":[""Moveable-Do (La-based minor)"",""Letter names""]}","[0]","""","""","2021-12-02 13:59:00","Mozilla/5.0 (Macintosh; Intel Mac OS X 10_15_7) AppleWebKit/537.36 (KHTML, like Gecko) Chrome/96.0.4664.55 Safari/537.36","Macintosh","Chrome","96.0.4664.55","OS X","10_15_7","447d70a80c75dce987d9c5508038710f"
"56","1011","1","""","11502.900000002235","survey-text","51","2301449","0.0-51.0","{""Q0"":""California, USA""}","""","""","""","2021-12-02 13:59:00","Mozilla/5.0 (Macintosh; Intel Mac OS X 10_15_7) AppleWebKit/537.36 (KHTML, like Gecko) Chrome/96.0.4664.55 Safari/537.36","Macintosh","Chrome","96.0.4664.55","OS X","10_15_7","447d70a80c75dce987d9c5508038710f"
"57","1011","1","""","10401.699999999255","survey-multi-select","52","2311858","0.0-52.0","{""Colors"":[""Moveable-Do (Do-based minor)"",""Letter names""]}","[0]","""","""","2021-12-02 13:59:00","Mozilla/5.0 (Macintosh; Intel Mac OS X 10_15_7) AppleWebKit/537.36 (KHTML, like Gecko) Chrome/96.0.4664.55 Safari/537.36","Macintosh","Chrome","96.0.4664.55","OS X","10_15_7","447d70a80c75dce987d9c5508038710f"
"58","1011","1","""","7206.699999999255","survey-multi-select","53","2319075","0.0-53.0","{""Colors"":[""Moveable-Do (Do-based minor)"",""Letter names""]}","[0]","""","""","2021-12-02 13:59:00","Mozilla/5.0 (Macintosh; Intel Mac OS X 10_15_7) AppleWebKit/537.36 (KHTML, like Gecko) Chrome/96.0.4664.55 Safari/537.36","Macintosh","Chrome","96.0.4664.55","OS X","10_15_7","447d70a80c75dce987d9c5508038710f"
"59","1011","1","""","8866.60000000149","survey-text","54","2327947","0.0-54.0","{""Q0"":""22""}","""","""","""","2021-12-02 13:59:00","Mozilla/5.0 (Macintosh; Intel Mac OS X 10_15_7) AppleWebKit/537.36 (KHTML, like Gecko) Chrome/96.0.4664.55 Safari/537.36","Macintosh","Chrome","96.0.4664.55","OS X","10_15_7","447d70a80c75dce987d9c5508038710f"
"60","1011","1","""","24340.300000000745","survey-multi-choice","55","2352295","0.0-55.0","{""theory_track_01"":""Yes"",""pitch_mem_02"":""No"",""score_transp_03"":""No""}","[0,1,2]","""","""","2021-12-02 13:59:00","Mozilla/5.0 (Macintosh; Intel Mac OS X 10_15_7) AppleWebKit/537.36 (KHTML, like Gecko) Chrome/96.0.4664.55 Safari/537.36","Macintosh","Chrome","96.0.4664.55","OS X","10_15_7","447d70a80c75dce987d9c5508038710f"
"61","1011","1","""","13548.10000000149","survey-multi-select","56","2365863","0.0-56.0","{""Colors"":[""Private college or university"",""Music Department within a liberal arts college"",""NASM-accredited music program""]}","[0]","""","""","2021-12-02 13:59:00","Mozilla/5.0 (Macintosh; Intel Mac OS X 10_15_7) AppleWebKit/537.36 (KHTML, like Gecko) Chrome/96.0.4664.55 Safari/537.36","Macintosh","Chrome","96.0.4664.55","OS X","10_15_7","447d70a80c75dce987d9c5508038710f"
"62","1011","1","""","110985.5","survey-text","57","2476857","0.0-57.0","{""Q0"":""220""}","""","""","""","2021-12-02 13:59:00","Mozilla/5.0 (Macintosh; Intel Mac OS X 10_15_7) AppleWebKit/537.36 (KHTML, like Gecko) Chrome/96.0.4664.55 Safari/537.36","Macintosh","Chrome","96.0.4664.55","OS X","10_15_7","447d70a80c75dce987d9c5508038710f"
"63","1011","1","""","13463.79999999702","survey-multi-select","58","2490331","0.0-58.0","{""Colors"":[""Bachelor of Arts (BA)"",""Bachelor of Music (BM)""]}","[0]","""","""","2021-12-02 13:59:00","Mozilla/5.0 (Macintosh; Intel Mac OS X 10_15_7) AppleWebKit/537.36 (KHTML, like Gecko) Chrome/96.0.4664.55 Safari/537.36","Macintosh","Chrome","96.0.4664.55","OS X","10_15_7","447d70a80c75dce987d9c5508038710f"
"64","1011","1","""","29237.199999999255","survey-multi-select","59","2519577","0.0-59.0","{""Colors"":[""Part-time adjuncts"",""Full-time non-tenure eligible""]}","[0]","""","""","2021-12-02 13:59:00","Mozilla/5.0 (Macintosh; Intel Mac OS X 10_15_7) AppleWebKit/537.36 (KHTML, like Gecko) Chrome/96.0.4664.55 Safari/537.36","Macintosh","Chrome","96.0.4664.55","OS X","10_15_7","447d70a80c75dce987d9c5508038710f"
"65","1011","1","""","11062.800000000745","survey-multi-select","60","2530645","0.0-60.0","{""Colors"":[""Graduate degree in performance""]}","[0]","""","""","2021-12-02 13:59:00","Mozilla/5.0 (Macintosh; Intel Mac OS X 10_15_7) AppleWebKit/537.36 (KHTML, like Gecko) Chrome/96.0.4664.55 Safari/537.36","Macintosh","Chrome","96.0.4664.55","OS X","10_15_7","447d70a80c75dce987d9c5508038710f"
"66","1011","1","""","6689","survey-text","61","2537341","0.0-61.0","{""Q0"":""USA""}","""","""","""","2021-12-02 13:59:00","Mozilla/5.0 (Macintosh; Intel Mac OS X 10_15_7) AppleWebKit/537.36 (KHTML, like Gecko) Chrome/96.0.4664.55 Safari/537.36","Macintosh","Chrome","96.0.4664.55","OS X","10_15_7","447d70a80c75dce987d9c5508038710f"
"67","1011","1","""","5801.599999997765","survey-text","62","2543151","0.0-62.0","{""Q0"":""Minnesota""}","""","""","""","2021-12-02 13:59:00","Mozilla/5.0 (Macintosh; Intel Mac OS X 10_15_7) AppleWebKit/537.36 (KHTML, like Gecko) Chrome/96.0.4664.55 Safari/537.36","Macintosh","Chrome","96.0.4664.55","OS X","10_15_7","447d70a80c75dce987d9c5508038710f"
"68","1011","1","""","95758.90000000224","survey-text","63","2638991","0.0-63.0","","","","","","","","","","","",""
"69","NR\"" because I hadn't noticed that \""Not Applicable\"" was also a choice. If there's any way for you to do so (and if it matters)"," please feel free to change every \""NR\"" response in Part II of this survey to \""Not applicable.\""}""","""","""","""","2021-12-02 13:59:00","199.91.180.215","Mozilla/5.0 (Macintosh; Intel Mac OS X 10_15_7) AppleWebKit/537.36 (KHTML, like Gecko) Chrome/96.0.4664.55 Safari/537.36","Macintosh","Chrome","96.0.4664.55","OS X","10_15_7","","","","","","",""
"70","1011","1","[{""page_index"":0,""viewing_time"":3664.599999997765}]","3665.099999997765","instructions","64","2642658","0.0-64.0","""","""","""","""","2021-12-02 13:59:00","Mozilla/5.0 (Macintosh; Intel Mac OS X 10_15_7) AppleWebKit/537.36 (KHTML, like Gecko) Chrome/96.0.4664.55 Safari/537.36","Macintosh","Chrome","96.0.4664.55","OS X","10_15_7","447d70a80c75dce987d9c5508038710f"
"71","1079","1","[{""page_index"":0,""viewing_time"":16504.199999928474},{""page_index"":1,""viewing_time"":11223.700000047684},{""page_index"":2,""viewing_time"":3404.2999999523163}]","31132.899999976158","instructions","0","31200","0.0-0.0","""","""","""","""","2021-12-02 19:43:34","Mozilla/5.0 (Macintosh; Intel Mac OS X 10_14_6) AppleWebKit/537.36 (KHTML, like Gecko) Chrome/96.0.4664.55 Safari/537.36","Macintosh","Chrome","96.0.4664.55","OS X","10_14_6","447d70a80c75dce987d9c5508038710f"
"72","1079","1","[{""page_index"":0,""viewing_time"":2233.399999976158}]","2233.5","instructions","1","33437","0.0-1.0","""","""","""","""","2021-12-02 19:43:34","Mozilla/5.0 (Macintosh; Intel Mac OS X 10_14_6) AppleWebKit/537.36 (KHTML, like Gecko) Chrome/96.0.4664.55 Safari/537.36","Macintosh","Chrome","96.0.4664.55","OS X","10_14_6","447d70a80c75dce987d9c5508038710f"
"73","1079","1","""","348295.7999999523","survey-likert","2","381731","0.0-2.0","{""rp_name_abref_10"":0,""ap_to_rp_22"":1,""rp_produce_abref_11"":0,""ap_ref_tonal_16"":5,""rp_id_interval_04"":2,""ap_id_440_23"":1,""ap_produce_interval_19"":1,""rp_produce_tonality_02"":5,""rp_produce_440_09"":1,""rp_to_ap_14"":0,""rp_lose_13"":3,""ap_produce_440_24"":4,""rp_perceive_same_07"":5,""ap_name_relation_20"":1,""rp_name_relation_06"":5,""ap_ref_tonal_03"":0,""ap_id_interval_18"":1,""rp_id_44_08"":2,""ap_ref_tonal_15"":0,""ap_perceive_same_21"":0,""rp_ref_tonal_01"":6,""ap_produce_tonality_17"":0,""ap_name_abref_25"":6,""ap_lose_28"":5,""rp_remember_group_12"":1,""ap_produce_abref_26"":5,""rp_produce_interval_05"":1,""ap_remember_group_27"":1}","[9,21,10,15,3,22,18,1,8,13,12,23,6,19,5,2,17,7,14,20,0,16,24,27,11,25,4,26]","""","""","2021-12-02 19:43:34","Mozilla/5.0 (Macintosh; Intel Mac OS X 10_14_6) AppleWebKit/537.36 (KHTML, like Gecko) Chrome/96.0.4664.55 Safari/537.36","Macintosh","Chrome","96.0.4664.55","OS X","10_14_6","447d70a80c75dce987d9c5508038710f"
"74","1079","1","""","166717.89999997616","survey-text","3","548453","0.0-3.0","{""Q0"":""the ability to identify scale degrees/solfege and produce/sing/play on instrument pitches in relation to a given key or tonality. ""}","""","""","""","2021-12-02 19:43:34","Mozilla/5.0 (Macintosh; Intel Mac OS X 10_14_6) AppleWebKit/537.36 (KHTML, like Gecko) Chrome/96.0.4664.55 Safari/537.36","Macintosh","Chrome","96.0.4664.55","OS X","10_14_6","447d70a80c75dce987d9c5508038710f"
"75","1079","1","""","115100.30000007153","survey-text","4","663552","0.0-4.0","","","","","","","","","","","",""
"76","that's a G#\"") to heard pitches without knowing beforehand the key or having any reference pitch provided.  """"}""","""","""","""","2021-12-02 19:43:34","108.16.240.245","Mozilla/5.0 (Macintosh; Intel Mac OS X 10_14_6) AppleWebKit/537.36 (KHTML, like Gecko) Chrome/96.0.4664.55 Safari/537.36","Macintosh","Chrome","96.0.4664.55","OS X","10_14_6","447d70a80c75dce987d9c5508038710f","","","","","","",""
"77","1079","1","[{""page_index"":0,""viewing_time"":3108.100000023842}]","3108.399999976158","instructions","5","666662","0.0-5.0","""","""","""","""","2021-12-02 19:43:34","Mozilla/5.0 (Macintosh; Intel Mac OS X 10_14_6) AppleWebKit/537.36 (KHTML, like Gecko) Chrome/96.0.4664.55 Safari/537.36","Macintosh","Chrome","96.0.4664.55","OS X","10_14_6","447d70a80c75dce987d9c5508038710f"
"78","1079","1","""","84130.09999990463","survey-likert","6","750793","0.0-6.0","{""re_people_al_1"":1,""ap_normal_13"":0,""ap_trained_ap_11"":0,""ap_better_others_14"":6,""rp_better_others_7"":6,""ap_override_10"":5,""ap_tonedeaf_12"":0,""ap_people_all_8"":0,""rp_tonedeaf_5"":1,""rp_normal_6"":0,""rp_override_3"":5,""rp_trained_ap_4"":1,""ap_impaired_9"":1,""rp_impaired_2"":0}","[0,12,10,13,6,9,11,7,4,5,2,3,8,1]","""","""","2021-12-02 19:43:34","Mozilla/5.0 (Macintosh; Intel Mac OS X 10_14_6) AppleWebKit/537.36 (KHTML, like Gecko) Chrome/96.0.4664.55 Safari/537.36","Macintosh","Chrome","96.0.4664.55","OS X","10_14_6","447d70a80c75dce987d9c5508038710f"
"79","1079","1","[{""page_index"":0,""viewing_time"":3490.2000000476837}]","3490.399999976158","instructions","7","754285","0.0-7.0","""","""","""","""","2021-12-02 19:43:34","Mozilla/5.0 (Macintosh; Intel Mac OS X 10_14_6) AppleWebKit/537.36 (KHTML, like Gecko) Chrome/96.0.4664.55 Safari/537.36","Macintosh","Chrome","96.0.4664.55","OS X","10_14_6","447d70a80c75dce987d9c5508038710f"
"80","1079","1","[{""page_index"":0,""viewing_time"":2021.6000000238419}]","2021.9000000953674","instructions","8","756308","0.0-8.0","""","""","""","""","2021-12-02 19:43:34","Mozilla/5.0 (Macintosh; Intel Mac OS X 10_14_6) AppleWebKit/537.36 (KHTML, like Gecko) Chrome/96.0.4664.55 Safari/537.36","Macintosh","Chrome","96.0.4664.55","OS X","10_14_6","447d70a80c75dce987d9c5508038710f"
"81","1079","1","""","16157.600000023842","html-slider-response","9","772468","0.0-9.0","100","""","<p></p>","50","2021-12-02 19:43:34","Mozilla/5.0 (Macintosh; Intel Mac OS X 10_14_6) AppleWebKit/537.36 (KHTML, like Gecko) Chrome/96.0.4664.55 Safari/537.36","Macintosh","Chrome","96.0.4664.55","OS X","10_14_6","447d70a80c75dce987d9c5508038710f"
"82","1079","1","""","4252.800000071526","html-slider-response","10","776721","0.0-10.0","0","""","<p></p>","50","2021-12-02 19:43:34","Mozilla/5.0 (Macintosh; Intel Mac OS X 10_14_6) AppleWebKit/537.36 (KHTML, like Gecko) Chrome/96.0.4664.55 Safari/537.36","Macintosh","Chrome","96.0.4664.55","OS X","10_14_6","447d70a80c75dce987d9c5508038710f"
"83","1079","1","""","13214.199999928474","survey-likert","11","789938","0.0-11.0","{""inst_priority_ap_01"":0,""inst_priority_rp_02"":4,""you_priority_ap_03"":0,""you_priority_rp_04"":4}","[0,1,2,3]","""","""","2021-12-02 19:43:34","Mozilla/5.0 (Macintosh; Intel Mac OS X 10_14_6) AppleWebKit/537.36 (KHTML, like Gecko) Chrome/96.0.4664.55 Safari/537.36","Macintosh","Chrome","96.0.4664.55","OS X","10_14_6","447d70a80c75dce987d9c5508038710f"
"84","1079","1","""","83057.39999997616","survey-text","12","872995","0.0-12.0","{""Q0"":""Hear a key establishing progression; then hear a single chord. Students identify the chord (using Roman Numerals) and bass note.""}","""","""","""","2021-12-02 19:43:34","Mozilla/5.0 (Macintosh; Intel Mac OS X 10_14_6) AppleWebKit/537.36 (KHTML, like Gecko) Chrome/96.0.4664.55 Safari/537.36","Macintosh","Chrome","96.0.4664.55","OS X","10_14_6","447d70a80c75dce987d9c5508038710f"
"85","1079","1","""","22996","survey-likert","13","895994","0.0-13.0","{""use_skill_freq_01"":5,""easy_teach_02"":3,""easy_to_learn_03"":2,""helps_relative_04"":6,""reps_relative_05"":4}","[0,1,2,3,4]","""","""","2021-12-02 19:43:34","Mozilla/5.0 (Macintosh; Intel Mac OS X 10_14_6) AppleWebKit/537.36 (KHTML, like Gecko) Chrome/96.0.4664.55 Safari/537.36","Macintosh","Chrome","96.0.4664.55","OS X","10_14_6","447d70a80c75dce987d9c5508038710f"
"86","1079","1","""","43953.699999928474","survey-text","14","939948","0.0-14.0","{""Q0"":""Students see a string of 4-5 solfege syllables. I play a key progression. Students are asked to sing the string in whole notes. ""}","""","""","""","2021-12-02 19:43:34","Mozilla/5.0 (Macintosh; Intel Mac OS X 10_14_6) AppleWebKit/537.36 (KHTML, like Gecko) Chrome/96.0.4664.55 Safari/537.36","Macintosh","Chrome","96.0.4664.55","OS X","10_14_6","447d70a80c75dce987d9c5508038710f"
"87","1079","1","""","18325.399999976158","survey-likert","15","958276","0.0-15.0","{""use_skill_freq_01"":6,""easy_teach_02"":5,""easy_to_learn_03"":4,""helps_relative_04"":6,""reps_relative_05"":6}","[0,1,2,3,4]","""","""","2021-12-02 19:43:34","Mozilla/5.0 (Macintosh; Intel Mac OS X 10_14_6) AppleWebKit/537.36 (KHTML, like Gecko) Chrome/96.0.4664.55 Safari/537.36","Macintosh","Chrome","96.0.4664.55","OS X","10_14_6","447d70a80c75dce987d9c5508038710f"
"88","1079","1","""","54754.200000047684","survey-text","16","1013031","0.0-16.0","{""Q0"":""I play a short melodic string of 4-6 pitches (e.g. 2 bars in 4/4 with simple rhythms); students sing back the string with solfege.   ""}","""","""","""","2021-12-02 19:43:34","Mozilla/5.0 (Macintosh; Intel Mac OS X 10_14_6) AppleWebKit/537.36 (KHTML, like Gecko) Chrome/96.0.4664.55 Safari/537.36","Macintosh","Chrome","96.0.4664.55","OS X","10_14_6","447d70a80c75dce987d9c5508038710f"
"89","1079","1","""","11748.200000047684","survey-likert","17","1024782","0.0-17.0","{""use_skill_freq_01"":6,""easy_teach_02"":4,""easy_to_learn_03"":3,""helps_relative_04"":6,""reps_relative_05"":6}","[0,1,2,3,4]","""","""","2021-12-02 19:43:34","Mozilla/5.0 (Macintosh; Intel Mac OS X 10_14_6) AppleWebKit/537.36 (KHTML, like Gecko) Chrome/96.0.4664.55 Safari/537.36","Macintosh","Chrome","96.0.4664.55","OS X","10_14_6","447d70a80c75dce987d9c5508038710f"
"90","1079","1","""","21295135.80000007","survey-text","18","22320340","0.0-18.0","{""Q0"":""sequentials - repeating a short pitch pattern (e.g., lower neighbors) on multiple scale degrees. ""}","""","""","""","2021-12-02 19:43:34","Mozilla/5.0 (Macintosh; Intel Mac OS X 10_14_6) AppleWebKit/537.36 (KHTML, like Gecko) Chrome/96.0.4664.55 Safari/537.36","Macintosh","Chrome","96.0.4664.55","OS X","10_14_6","447d70a80c75dce987d9c5508038710f"
"91","1079","1","""","22981.5","survey-likert","19","22343325","0.0-19.0","{""use_skill_freq_01"":6,""easy_teach_02"":5,""easy_to_learn_03"":4,""helps_relative_04"":4,""reps_relative_05"":4}","[0,1,2,3,4]","""","""","2021-12-02 19:43:34","Mozilla/5.0 (Macintosh; Intel Mac OS X 10_14_6) AppleWebKit/537.36 (KHTML, like Gecko) Chrome/96.0.4664.55 Safari/537.36","Macintosh","Chrome","96.0.4664.55","OS X","10_14_6","447d70a80c75dce987d9c5508038710f"
"92","1079","1","""","81366.39999997616","survey-text","20","22424694","0.0-20.0","{""Q0"":""Students sing melody (either at sight or prepared) along with accompaniment. Change keys either up or down and repeat the performance. ""}","""","""","""","2021-12-02 19:43:34","Mozilla/5.0 (Macintosh; Intel Mac OS X 10_14_6) AppleWebKit/537.36 (KHTML, like Gecko) Chrome/96.0.4664.55 Safari/537.36","Macintosh","Chrome","96.0.4664.55","OS X","10_14_6","447d70a80c75dce987d9c5508038710f"
"93","1079","1","""","37007.60000002384","survey-likert","21","22461705","0.0-21.0","{""use_skill_freq_01"":2,""easy_teach_02"":4,""easy_to_learn_03"":4,""helps_relative_04"":4,""reps_relative_05"":4}","[0,1,2,3,4]","""","""","2021-12-02 19:43:34","Mozilla/5.0 (Macintosh; Intel Mac OS X 10_14_6) AppleWebKit/537.36 (KHTML, like Gecko) Chrome/96.0.4664.55 Safari/537.36","Macintosh","Chrome","96.0.4664.55","OS X","10_14_6","447d70a80c75dce987d9c5508038710f"
"94","1079","1","[{""page_index"":0,""viewing_time"":4030.2000000476837}]","4031","instructions","22","22465737","0.0-22.0","""","""","""","""","2021-12-02 19:43:34","Mozilla/5.0 (Macintosh; Intel Mac OS X 10_14_6) AppleWebKit/537.36 (KHTML, like Gecko) Chrome/96.0.4664.55 Safari/537.36","Macintosh","Chrome","96.0.4664.55","OS X","10_14_6","447d70a80c75dce987d9c5508038710f"
"95","1079","1","""","1407740.0999999046","survey-text","23","23873521","0.0-23.0","{""Q0"":""10 (or more) seconds of white noise, followed by a single pitch. Students have to identify the pitch. ""}","""","""","""","2021-12-02 19:43:34","Mozilla/5.0 (Macintosh; Intel Mac OS X 10_14_6) AppleWebKit/537.36 (KHTML, like Gecko) Chrome/96.0.4664.55 Safari/537.36","Macintosh","Chrome","96.0.4664.55","OS X","10_14_6","447d70a80c75dce987d9c5508038710f"
"96","1079","1","""","19712.199999928474","survey-likert","24","23893236","0.0-24.0","{""teach_freq_ap_01"":0,""easy_teach_02"":8,""eash_learn_03"":8,""foster_ap_04"":3,""represent_ap_05"":4}","[0,1,2,3,4]","""","""","2021-12-02 19:43:34","Mozilla/5.0 (Macintosh; Intel Mac OS X 10_14_6) AppleWebKit/537.36 (KHTML, like Gecko) Chrome/96.0.4664.55 Safari/537.36","Macintosh","Chrome","96.0.4664.55","OS X","10_14_6","447d70a80c75dce987d9c5508038710f"
"97","1079","1","""","73187.20000004768","survey-text","25","23966426","0.0-25.0","{""Q0"":""Students go around in a circle, with each student singing one note from a melody that is written in multiple moveable clefs (one clef per note).  ""}","""","""","""","2021-12-02 19:43:34","Mozilla/5.0 (Macintosh; Intel Mac OS X 10_14_6) AppleWebKit/537.36 (KHTML, like Gecko) Chrome/96.0.4664.55 Safari/537.36","Macintosh","Chrome","96.0.4664.55","OS X","10_14_6","447d70a80c75dce987d9c5508038710f"
"98","1079","1","""","11850.300000071526","survey-likert","26","23978279","0.0-26.0","{""teach_freq_ap_01"":0,""easy_teach_02"":8,""eash_learn_03"":8,""foster_ap_04"":3,""represent_ap_05"":4}","[0,1,2,3,4]","""","""","2021-12-02 19:43:34","Mozilla/5.0 (Macintosh; Intel Mac OS X 10_14_6) AppleWebKit/537.36 (KHTML, like Gecko) Chrome/96.0.4664.55 Safari/537.36","Macintosh","Chrome","96.0.4664.55","OS X","10_14_6","447d70a80c75dce987d9c5508038710f"
"99","1079","1","""","1045.5","survey-text","27","23979328","0.0-27.0","{""Q0"":""}","""","""","""","2021-12-02 19:43:34","Mozilla/5.0 (Macintosh; Intel Mac OS X 10_14_6) AppleWebKit/537.36 (KHTML, like Gecko) Chrome/96.0.4664.55 Safari/537.36","Macintosh","Chrome","96.0.4664.55","OS X","10_14_6","447d70a80c75dce987d9c5508038710f"
"100","1079","1","""","1829.2000000476837","survey-likert","28","23981159","0.0-28.0","{""teach_freq_ap_01"":"",""easy_teach_02"":"",""eash_learn_03"":"",""foster_ap_04"":"",""represent_ap_05"":""}","[0,1,2,3,4]","""","""","2021-12-02 19:43:34","Mozilla/5.0 (Macintosh; Intel Mac OS X 10_14_6) AppleWebKit/537.36 (KHTML, like Gecko) Chrome/96.0.4664.55 Safari/537.36","Macintosh","Chrome","96.0.4664.55","OS X","10_14_6","447d70a80c75dce987d9c5508038710f"
"101","1079","1","""","853","survey-text","29","23982014","0.0-29.0","{""Q0"":""}","""","""","""","2021-12-02 19:43:34","Mozilla/5.0 (Macintosh; Intel Mac OS X 10_14_6) AppleWebKit/537.36 (KHTML, like Gecko) Chrome/96.0.4664.55 Safari/537.36","Macintosh","Chrome","96.0.4664.55","OS X","10_14_6","447d70a80c75dce987d9c5508038710f"
"102","1079","1","""","1282.8999999761581","survey-likert","30","23983299","0.0-30.0","{""teach_freq_ap_01"":"",""easy_teach_02"":"",""eash_learn_03"":"",""foster_ap_04"":"",""represent_ap_05"":""}","[0,1,2,3,4]","""","""","2021-12-02 19:43:34","Mozilla/5.0 (Macintosh; Intel Mac OS X 10_14_6) AppleWebKit/537.36 (KHTML, like Gecko) Chrome/96.0.4664.55 Safari/537.36","Macintosh","Chrome","96.0.4664.55","OS X","10_14_6","447d70a80c75dce987d9c5508038710f"
"103","1079","1","""","766.3000000715256","survey-text","31","23984067","0.0-31.0","{""Q0"":""}","""","""","""","2021-12-02 19:43:34","Mozilla/5.0 (Macintosh; Intel Mac OS X 10_14_6) AppleWebKit/537.36 (KHTML, like Gecko) Chrome/96.0.4664.55 Safari/537.36","Macintosh","Chrome","96.0.4664.55","OS X","10_14_6","447d70a80c75dce987d9c5508038710f"
"104","1079","1","""","1347.3000000715256","survey-likert","32","23985417","0.0-32.0","{""teach_freq_ap_01"":"",""easy_teach_02"":"",""eash_learn_03"":"",""foster_ap_04"":"",""represent_ap_05"":""}","[0,1,2,3,4]","""","""","2021-12-02 19:43:34","Mozilla/5.0 (Macintosh; Intel Mac OS X 10_14_6) AppleWebKit/537.36 (KHTML, like Gecko) Chrome/96.0.4664.55 Safari/537.36","Macintosh","Chrome","96.0.4664.55","OS X","10_14_6","447d70a80c75dce987d9c5508038710f"
"105","1079","1","""","89053.5","survey-text","33","24074473","0.0-33.0","{""Q0"":""pop/rock music, some folk, classical (i.e., galant, romantic, baroque - including some Bach chorales), early jazz.""}","""","""","""","2021-12-02 19:43:34","Mozilla/5.0 (Macintosh; Intel Mac OS X 10_14_6) AppleWebKit/537.36 (KHTML, like Gecko) Chrome/96.0.4664.55 Safari/537.36","Macintosh","Chrome","96.0.4664.55","OS X","10_14_6","447d70a80c75dce987d9c5508038710f"
"106","1079","1","""","16164.599999904633","html-slider-response","34","24090640","0.0-34.0","28","""","<p></p>","50","2021-12-02 19:43:34","Mozilla/5.0 (Macintosh; Intel Mac OS X 10_14_6) AppleWebKit/537.36 (KHTML, like Gecko) Chrome/96.0.4664.55 Safari/537.36","Macintosh","Chrome","96.0.4664.55","OS X","10_14_6","447d70a80c75dce987d9c5508038710f"
"107","1079","1","""","23740.200000047684","survey-text","35","24114382","0.0-35.0","{""Q0"":""more jazz perhaps?""}","""","""","""","2021-12-02 19:43:34","Mozilla/5.0 (Macintosh; Intel Mac OS X 10_14_6) AppleWebKit/537.36 (KHTML, like Gecko) Chrome/96.0.4664.55 Safari/537.36","Macintosh","Chrome","96.0.4664.55","OS X","10_14_6","447d70a80c75dce987d9c5508038710f"
"108","1079","1","""","487748.7000000477","survey-text","36","24602134","0.0-36.0","{""Q0"":""There are many: pitch matching, distinguish higher/lower, distinguish same/different, singing major scales, singing from solfege, melodic echo (without solfege), singing the tonic of pieces of pop/classical, rhythmic echo, Scale degree ID (e.g., play a progression then play a note in the scale), singing minor scales, singing sequentials, singing chord arpeggiations from RN/FB progressions, melodic echo (with solfege), Chord ID (RNs and bass notes in solfege),  singing guidetones along with pieces of pop/classical, improvisation, melodic dictation (using proto-notation). \n\n""}","""","""","""","2021-12-02 19:43:34","Mozilla/5.0 (Macintosh; Intel Mac OS X 10_14_6) AppleWebKit/537.36 (KHTML, like Gecko) Chrome/96.0.4664.55 Safari/537.36","Macintosh","Chrome","96.0.4664.55","OS X","10_14_6","447d70a80c75dce987d9c5508038710f"
"109","1079","1","""","8725.300000071526","html-slider-response","37","24610861","0.0-37.0","73","""","<p></p>","50","2021-12-02 19:43:34","Mozilla/5.0 (Macintosh; Intel Mac OS X 10_14_6) AppleWebKit/537.36 (KHTML, like Gecko) Chrome/96.0.4664.55 Safari/537.36","Macintosh","Chrome","96.0.4664.55","OS X","10_14_6","447d70a80c75dce987d9c5508038710f"
"110","1079","1","[{""page_index"":0,""viewing_time"":1601.5}]","1601.8999999761581","instructions","38","24612467","0.0-38.0","""","""","""","""","2021-12-02 19:43:34","Mozilla/5.0 (Macintosh; Intel Mac OS X 10_14_6) AppleWebKit/537.36 (KHTML, like Gecko) Chrome/96.0.4664.55 Safari/537.36","Macintosh","Chrome","96.0.4664.55","OS X","10_14_6","447d70a80c75dce987d9c5508038710f"
"111","1079","1","[{""page_index"":0,""viewing_time"":3814.7999999523163}]","3815.1999999284744","instructions","39","24616283","0.0-39.0","""","""","""","""","2021-12-02 19:43:34","Mozilla/5.0 (Macintosh; Intel Mac OS X 10_14_6) AppleWebKit/537.36 (KHTML, like Gecko) Chrome/96.0.4664.55 Safari/537.36","Macintosh","Chrome","96.0.4664.55","OS X","10_14_6","447d70a80c75dce987d9c5508038710f"
"112","1079","1","""","42379.699999928474","survey-multi-select","40","24658694","0.0-40.0","{""Colors"":[""Music theory (First Year Undergraduate, Aural)"",""Music theory (Second Year Undergraduate, Written)"",""Music theory (Junior/Senior upper-level courses, Written)"",""Music theory (Graduate, Written)""]}","[0]","""","""","2021-12-02 19:43:34","Mozilla/5.0 (Macintosh; Intel Mac OS X 10_14_6) AppleWebKit/537.36 (KHTML, like Gecko) Chrome/96.0.4664.55 Safari/537.36","Macintosh","Chrome","96.0.4664.55","OS X","10_14_6","447d70a80c75dce987d9c5508038710f"
"113","1079","1","""","18894.600000023842","survey-text","41","24677592","0.0-41.0","{""Q0"":""20""}","""","""","""","2021-12-02 19:43:34","Mozilla/5.0 (Macintosh; Intel Mac OS X 10_14_6) AppleWebKit/537.36 (KHTML, like Gecko) Chrome/96.0.4664.55 Safari/537.36","Macintosh","Chrome","96.0.4664.55","OS X","10_14_6","447d70a80c75dce987d9c5508038710f"
"114","1079","1","""","5131.299999952316","survey-multi-select","42","24682727","0.0-42.0","{""Colors"":[""Ph.D. in Music Theory""]}","[0]","""","""","2021-12-02 19:43:34","Mozilla/5.0 (Macintosh; Intel Mac OS X 10_14_6) AppleWebKit/537.36 (KHTML, like Gecko) Chrome/96.0.4664.55 Safari/537.36","Macintosh","Chrome","96.0.4664.55","OS X","10_14_6","447d70a80c75dce987d9c5508038710f"
"115","1079","1","""","29876.100000023842","survey-text","43","24712606","0.0-43.0","{""Q0"":""12""}","""","""","""","2021-12-02 19:43:34","Mozilla/5.0 (Macintosh; Intel Mac OS X 10_14_6) AppleWebKit/537.36 (KHTML, like Gecko) Chrome/96.0.4664.55 Safari/537.36","Macintosh","Chrome","96.0.4664.55","OS X","10_14_6","447d70a80c75dce987d9c5508038710f"
"116","1079","1","""","30275.600000023842","survey-multi-select","44","24742886","0.0-44.0","{""Colors"":[""Public institution"",""Music Department within a university"",""NASM-accredited music program""]}","[0]","""","""","2021-12-02 19:43:34","Mozilla/5.0 (Macintosh; Intel Mac OS X 10_14_6) AppleWebKit/537.36 (KHTML, like Gecko) Chrome/96.0.4664.55 Safari/537.36","Macintosh","Chrome","96.0.4664.55","OS X","10_14_6","447d70a80c75dce987d9c5508038710f"
"117","1079","1","""","11601.300000071526","survey-multi-choice","45","24754491","0.0-45.0","{""Colors"":""Full-Time Tenured""}","[0]","""","""","2021-12-02 19:43:34","Mozilla/5.0 (Macintosh; Intel Mac OS X 10_14_6) AppleWebKit/537.36 (KHTML, like Gecko) Chrome/96.0.4664.55 Safari/537.36","Macintosh","Chrome","96.0.4664.55","OS X","10_14_6","447d70a80c75dce987d9c5508038710f"
"118","1079","1","""","6698.600000023842","html-slider-response","46","24761191","0.0-46.0","19","""","<p></p>","50","2021-12-02 19:43:34","Mozilla/5.0 (Macintosh; Intel Mac OS X 10_14_6) AppleWebKit/537.36 (KHTML, like Gecko) Chrome/96.0.4664.55 Safari/537.36","Macintosh","Chrome","96.0.4664.55","OS X","10_14_6","447d70a80c75dce987d9c5508038710f"
"119","1079","1","""","4767.300000071526","html-slider-response","47","24765960","0.0-47.0","79","""","<p></p>","50","2021-12-02 19:43:34","Mozilla/5.0 (Macintosh; Intel Mac OS X 10_14_6) AppleWebKit/537.36 (KHTML, like Gecko) Chrome/96.0.4664.55 Safari/537.36","Macintosh","Chrome","96.0.4664.55","OS X","10_14_6","447d70a80c75dce987d9c5508038710f"
"120","1079","1","[{""page_index"":0,""viewing_time"":2597.6999999284744}]","2598","instructions","48","24768559","0.0-48.0","""","""","""","""","2021-12-02 19:43:34","Mozilla/5.0 (Macintosh; Intel Mac OS X 10_14_6) AppleWebKit/537.36 (KHTML, like Gecko) Chrome/96.0.4664.55 Safari/537.36","Macintosh","Chrome","96.0.4664.55","OS X","10_14_6","447d70a80c75dce987d9c5508038710f"
"121","1079","1","""","9555","survey-text","49","24778117","0.0-49.0","{""Q0"":""20""}","""","""","""","2021-12-02 19:43:34","Mozilla/5.0 (Macintosh; Intel Mac OS X 10_14_6) AppleWebKit/537.36 (KHTML, like Gecko) Chrome/96.0.4664.55 Safari/537.36","Macintosh","Chrome","96.0.4664.55","OS X","10_14_6","447d70a80c75dce987d9c5508038710f"
"122","1079","1","""","16512.099999904633","survey-multi-select","50","24794633","0.0-50.0","{""Colors"":[""Moveable-Do (Do-based minor)"",""Fixed-Do without inflections""]}","[0]","""","""","2021-12-02 19:43:34","Mozilla/5.0 (Macintosh; Intel Mac OS X 10_14_6) AppleWebKit/537.36 (KHTML, like Gecko) Chrome/96.0.4664.55 Safari/537.36","Macintosh","Chrome","96.0.4664.55","OS X","10_14_6","447d70a80c75dce987d9c5508038710f"
"123","1079","1","""","28127.600000023842","survey-text","51","24822764","0.0-51.0","{""Q0"":""Ann Arbor, MI, USA. / Paris, France""}","""","""","""","2021-12-02 19:43:34","Mozilla/5.0 (Macintosh; Intel Mac OS X 10_14_6) AppleWebKit/537.36 (KHTML, like Gecko) Chrome/96.0.4664.55 Safari/537.36","Macintosh","Chrome","96.0.4664.55","OS X","10_14_6","447d70a80c75dce987d9c5508038710f"
"124","1079","1","""","4625.5","survey-multi-select","52","24827396","0.0-52.0","{""Colors"":[""Moveable-Do (Do-based minor)""]}","[0]","""","""","2021-12-02 19:43:34","Mozilla/5.0 (Macintosh; Intel Mac OS X 10_14_6) AppleWebKit/537.36 (KHTML, like Gecko) Chrome/96.0.4664.55 Safari/537.36","Macintosh","Chrome","96.0.4664.55","OS X","10_14_6","447d70a80c75dce987d9c5508038710f"
"125","1079","1","""","4097.600000023842","survey-multi-select","53","24831502","0.0-53.0","{""Colors"":[""Moveable-Do (Do-based minor)""]}","[0]","""","""","2021-12-02 19:43:34","Mozilla/5.0 (Macintosh; Intel Mac OS X 10_14_6) AppleWebKit/537.36 (KHTML, like Gecko) Chrome/96.0.4664.55 Safari/537.36","Macintosh","Chrome","96.0.4664.55","OS X","10_14_6","447d70a80c75dce987d9c5508038710f"
"126","1079","1","""","11458.799999952316","survey-text","54","24842963","0.0-54.0","{""Q0"":""12""}","""","""","""","2021-12-02 19:43:34","Mozilla/5.0 (Macintosh; Intel Mac OS X 10_14_6) AppleWebKit/537.36 (KHTML, like Gecko) Chrome/96.0.4664.55 Safari/537.36","Macintosh","Chrome","96.0.4664.55","OS X","10_14_6","447d70a80c75dce987d9c5508038710f"
"127","1079","1","""","25271.200000047684","survey-multi-choice","55","24868238","0.0-55.0","{""theory_track_01"":""No"",""pitch_mem_02"":""No"",""score_transp_03"":""Yes""}","[0,1,2]","""","""","2021-12-02 19:43:34","Mozilla/5.0 (Macintosh; Intel Mac OS X 10_14_6) AppleWebKit/537.36 (KHTML, like Gecko) Chrome/96.0.4664.55 Safari/537.36","Macintosh","Chrome","96.0.4664.55","OS X","10_14_6","447d70a80c75dce987d9c5508038710f"
"128","1079","1","""","15444.100000023842","survey-multi-select","56","24883688","0.0-56.0","{""Colors"":[""Private college or university"",""Public college or university"",""Music Department within a university"",""NASM-accredited music program""]}","[0]","""","""","2021-12-02 19:43:34","Mozilla/5.0 (Macintosh; Intel Mac OS X 10_14_6) AppleWebKit/537.36 (KHTML, like Gecko) Chrome/96.0.4664.55 Safari/537.36","Macintosh","Chrome","96.0.4664.55","OS X","10_14_6","447d70a80c75dce987d9c5508038710f"
"129","1079","1","""","28018.5","survey-text","57","24911710","0.0-57.0","{""Q0"":""300""}","""","""","""","2021-12-02 19:43:34","Mozilla/5.0 (Macintosh; Intel Mac OS X 10_14_6) AppleWebKit/537.36 (KHTML, like Gecko) Chrome/96.0.4664.55 Safari/537.36","Macintosh","Chrome","96.0.4664.55","OS X","10_14_6","447d70a80c75dce987d9c5508038710f"
"130","1079","1","""","16813.599999904633","survey-multi-select","58","24928533","0.0-58.0","{""Colors"":[""Undergraduate music minor"",""Bachelor of Arts (BA)"",""Bachelor of Music (BM)"",""Masters (MA)"",""Masters (MM)"",""Performer's Certificate/Graduate Performance Diploma""]}","[0]","""","""","2021-12-02 19:43:34","Mozilla/5.0 (Macintosh; Intel Mac OS X 10_14_6) AppleWebKit/537.36 (KHTML, like Gecko) Chrome/96.0.4664.55 Safari/537.36","Macintosh","Chrome","96.0.4664.55","OS X","10_14_6","447d70a80c75dce987d9c5508038710f"
"131","1079","1","""","20793.700000047684","survey-multi-select","59","24949333","0.0-59.0","{""Colors"":[""Full-time non-tenure eligible"",""Full-time tenure eligible"",""Full-time tenured""]}","[0]","""","""","2021-12-02 19:43:34","Mozilla/5.0 (Macintosh; Intel Mac OS X 10_14_6) AppleWebKit/537.36 (KHTML, like Gecko) Chrome/96.0.4664.55 Safari/537.36","Macintosh","Chrome","96.0.4664.55","OS X","10_14_6","447d70a80c75dce987d9c5508038710f"
"132","1079","1","""","11177.099999904633","survey-multi-select","60","24960513","0.0-60.0","{""Colors"":[""Graduate degree in music theory or composition""]}","[0]","""","""","2021-12-02 19:43:34","Mozilla/5.0 (Macintosh; Intel Mac OS X 10_14_6) AppleWebKit/537.36 (KHTML, like Gecko) Chrome/96.0.4664.55 Safari/537.36","Macintosh","Chrome","96.0.4664.55","OS X","10_14_6","447d70a80c75dce987d9c5508038710f"
"133","1079","1","""","7845.199999928474","survey-text","61","24968362","0.0-61.0","{""Q0"":""United States""}","""","""","""","2021-12-02 19:43:34","Mozilla/5.0 (Macintosh; Intel Mac OS X 10_14_6) AppleWebKit/537.36 (KHTML, like Gecko) Chrome/96.0.4664.55 Safari/537.36","Macintosh","Chrome","96.0.4664.55","OS X","10_14_6","447d70a80c75dce987d9c5508038710f"
"134","1079","1","""","8175.099999904633","survey-text","62","24976539","0.0-62.0","{""Q0"":""Delaware :)""}","""","""","""","2021-12-02 19:43:34","Mozilla/5.0 (Macintosh; Intel Mac OS X 10_14_6) AppleWebKit/537.36 (KHTML, like Gecko) Chrome/96.0.4664.55 Safari/537.36","Macintosh","Chrome","96.0.4664.55","OS X","10_14_6","447d70a80c75dce987d9c5508038710f"
"135","1079","1","""","3541","survey-text","63","24980084","0.0-63.0","{""Q0"":""}","""","""","""","2021-12-02 19:43:34","Mozilla/5.0 (Macintosh; Intel Mac OS X 10_14_6) AppleWebKit/537.36 (KHTML, like Gecko) Chrome/96.0.4664.55 Safari/537.36","Macintosh","Chrome","96.0.4664.55","OS X","10_14_6","447d70a80c75dce987d9c5508038710f"
"136","1079","1","[{""page_index"":0,""viewing_time"":10783.799999952316}]","10784.100000023842","instructions","64","24990868","0.0-64.0","""","""","""","""","2021-12-02 19:43:34","Mozilla/5.0 (Macintosh; Intel Mac OS X 10_14_6) AppleWebKit/537.36 (KHTML, like Gecko) Chrome/96.0.4664.55 Safari/537.36","Macintosh","Chrome","96.0.4664.55","OS X","10_14_6","447d70a80c75dce987d9c5508038710f"
"137","10","1","[{""page_index"":0,""viewing_time"":1038267.7999999821},{""page_index"":1,""viewing_time"":59722.40000000596},{""page_index"":2,""viewing_time"":2978.199999988079}]","1100969.7999999821","instructions","0","1101048","0.0-0.0","""","""","""","""","2021-08-10 18:33:17","Mozilla/5.0 (Macintosh; Intel Mac OS X 10_15_7) AppleWebKit/537.36 (KHTML, like Gecko) Chrome/92.0.4515.107 Safari/537.36","Macintosh","Chrome","92.0.4515.107","OS X","10_15_7","c2ec3e1d97c081aeb487e375c8af45d6"
"138","10","1","[{""page_index"":0,""viewing_time"":3645.699999988079}]","3646.199999988079","instructions","1","1104702","0.0-1.0","""","""","""","""","2021-08-10 18:33:17","Mozilla/5.0 (Macintosh; Intel Mac OS X 10_15_7) AppleWebKit/537.36 (KHTML, like Gecko) Chrome/92.0.4515.107 Safari/537.36","Macintosh","Chrome","92.0.4515.107","OS X","10_15_7","c2ec3e1d97c081aeb487e375c8af45d6"
"139","10","1","""","288062.7000000179","survey-likert","2","1392791","0.0-2.0","{""rp_name_relation"":2,""rp_name_abref"":0,""ap_to_rp"":0,""ap_lose"":6,""ap_name_relation"":6,""rp_lose"":2,""ap_id_interval"":1,""rp_id_440"":4,""ap_produce_interval"":3,""rp_remember_group"":3,""rp_to_ap"":0,""rp_produce_440"":3,""ap_produce_abref"":6,""ap_ref_tonal"":6,""rp_id_interval"":6,""rp_produce_interval"":6,""ap_remember_group"":4,""rp_ref_tonal"":6,""rp_produce_abref"":0,""ap_produce_440"":0,""ap_produce_tonality"":6,""ap_name_abref"":6,""ap_perceive_same"":1,""rp_produce_tonality"":6,""rp_perceive_same"":6,""ap_id_440"":0}","[5,9,21,27,19,12,17,7,18,11,13,8,25,2,3,4,14,26,0,10,23,16,24,20,1,15,6,22]","""","""","2021-08-10 18:33:17","Mozilla/5.0 (Macintosh; Intel Mac OS X 10_15_7) AppleWebKit/537.36 (KHTML, like Gecko) Chrome/92.0.4515.107 Safari/537.36","Macintosh","Chrome","92.0.4515.107","OS X","10_15_7","c2ec3e1d97c081aeb487e375c8af45d6"
"140","10","1","""","53812.5","survey-text","3","1446620","0.0-3.0","{""Q0"":""Not applicable.""}","""","""","""","2021-08-10 18:33:17","Mozilla/5.0 (Macintosh; Intel Mac OS X 10_15_7) AppleWebKit/537.36 (KHTML, like Gecko) Chrome/92.0.4515.107 Safari/537.36","Macintosh","Chrome","92.0.4515.107","OS X","10_15_7","c2ec3e1d97c081aeb487e375c8af45d6"
"141","10","1","""","14436.200000017881","survey-text","4","1461063","0.0-4.0","{""Q0"":""Not applicable.""}","""","""","""","2021-08-10 18:33:17","Mozilla/5.0 (Macintosh; Intel Mac OS X 10_15_7) AppleWebKit/537.36 (KHTML, like Gecko) Chrome/92.0.4515.107 Safari/537.36","Macintosh","Chrome","92.0.4515.107","OS X","10_15_7","c2ec3e1d97c081aeb487e375c8af45d6"
"142","10","1","[{""page_index"":0,""viewing_time"":1844.6000000238419}]","1845.5","instructions","5","1462912","0.0-5.0","""","""","""","""","2021-08-10 18:33:17","Mozilla/5.0 (Macintosh; Intel Mac OS X 10_15_7) AppleWebKit/537.36 (KHTML, like Gecko) Chrome/92.0.4515.107 Safari/537.36","Macintosh","Chrome","92.0.4515.107","OS X","10_15_7","c2ec3e1d97c081aeb487e375c8af45d6"
"143","10","1","""","120474.79999998212","survey-likert","6","1583399","0.0-6.0","{""rp_better_others"":6,""rp_override"":6,""re_people_al"":2,""rp_trained_ap"":4,""ap_override"":6,""ap_better_others"":6,""ap_trained_ap"":3,""rp_normal"":4,""ap_impaired"":5,""ap_tonedeaf"":0,""rp_tonedeaf"":4,""ap_normal"":2,""rp_impaired"":1,""ap_people_all"":0}","[6,2,0,3,9,13,10,5,8,11,4,12,1,7]","""","""","2021-08-10 18:33:17","Mozilla/5.0 (Macintosh; Intel Mac OS X 10_15_7) AppleWebKit/537.36 (KHTML, like Gecko) Chrome/92.0.4515.107 Safari/537.36","Macintosh","Chrome","92.0.4515.107","OS X","10_15_7","c2ec3e1d97c081aeb487e375c8af45d6"
"144","10","1","[{""page_index"":0,""viewing_time"":4751.5}]","4751.800000011921","instructions","7","1588158","0.0-7.0","""","""","""","""","2021-08-10 18:33:17","Mozilla/5.0 (Macintosh; Intel Mac OS X 10_15_7) AppleWebKit/537.36 (KHTML, like Gecko) Chrome/92.0.4515.107 Safari/537.36","Macintosh","Chrome","92.0.4515.107","OS X","10_15_7","c2ec3e1d97c081aeb487e375c8af45d6"
"145","10","1","[{""page_index"":0,""viewing_time"":3958.300000011921}]","3958.5999999940395","instructions","8","1592118","0.0-8.0","""","""","""","""","2021-08-10 18:33:17","Mozilla/5.0 (Macintosh; Intel Mac OS X 10_15_7) AppleWebKit/537.36 (KHTML, like Gecko) Chrome/92.0.4515.107 Safari/537.36","Macintosh","Chrome","92.0.4515.107","OS X","10_15_7","c2ec3e1d97c081aeb487e375c8af45d6"
"146","10","1","[{""page_index"":0,""viewing_time"":22495.69999998808}]","22496.09999999404","instructions","9","1614617","0.0-9.0","""","""","""","""","2021-08-10 18:33:17","Mozilla/5.0 (Macintosh; Intel Mac OS X 10_15_7) AppleWebKit/537.36 (KHTML, like Gecko) Chrome/92.0.4515.107 Safari/537.36","Macintosh","Chrome","92.0.4515.107","OS X","10_15_7","c2ec3e1d97c081aeb487e375c8af45d6"
"147","10","1","""","31176","survey-text","10","1645798","0.0-10.0","{""Q0"":""Sing on scale-degree numbers.""}","""","""","""","2021-08-10 18:33:17","Mozilla/5.0 (Macintosh; Intel Mac OS X 10_15_7) AppleWebKit/537.36 (KHTML, like Gecko) Chrome/92.0.4515.107 Safari/537.36","Macintosh","Chrome","92.0.4515.107","OS X","10_15_7","c2ec3e1d97c081aeb487e375c8af45d6"
"148","10","1","""","21750.90000000596","survey-likert","11","1667556","0.0-11.0","{""rp_ac_rate"":6}","[0,1,2,3,4]","""","""","2021-08-10 18:33:17","Mozilla/5.0 (Macintosh; Intel Mac OS X 10_15_7) AppleWebKit/537.36 (KHTML, like Gecko) Chrome/92.0.4515.107 Safari/537.36","Macintosh","Chrome","92.0.4515.107","OS X","10_15_7","c2ec3e1d97c081aeb487e375c8af45d6"
"149","10","1","""","8455.59999999404","survey-text","12","1676024","0.0-12.0","{""Q0"":""}","""","""","""","2021-08-10 18:33:17","Mozilla/5.0 (Macintosh; Intel Mac OS X 10_15_7) AppleWebKit/537.36 (KHTML, like Gecko) Chrome/92.0.4515.107 Safari/537.36","Macintosh","Chrome","92.0.4515.107","OS X","10_15_7","c2ec3e1d97c081aeb487e375c8af45d6"
"150","10","1","""","3252","survey-likert","13","1679282","0.0-13.0","{""rp_ac_rate"":""}","[0,1,2,3,4]","""","""","2021-08-10 18:33:17","Mozilla/5.0 (Macintosh; Intel Mac OS X 10_15_7) AppleWebKit/537.36 (KHTML, like Gecko) Chrome/92.0.4515.107 Safari/537.36","Macintosh","Chrome","92.0.4515.107","OS X","10_15_7","c2ec3e1d97c081aeb487e375c8af45d6"
"151","10","1","""","11076.09999999404","survey-text","14","1690366","0.0-14.0","{""Q0"":""Take dictation on scale-degree numbers.""}","""","""","""","2021-08-10 18:33:17","Mozilla/5.0 (Macintosh; Intel Mac OS X 10_15_7) AppleWebKit/537.36 (KHTML, like Gecko) Chrome/92.0.4515.107 Safari/537.36","Macintosh","Chrome","92.0.4515.107","OS X","10_15_7","c2ec3e1d97c081aeb487e375c8af45d6"
"152","10","1","""","12564.90000000596","survey-likert","15","1702938","0.0-15.0","{""rp_ac_rate"":6}","[0,1,2,3,4]","""","""","2021-08-10 18:33:17","Mozilla/5.0 (Macintosh; Intel Mac OS X 10_15_7) AppleWebKit/537.36 (KHTML, like Gecko) Chrome/92.0.4515.107 Safari/537.36","Macintosh","Chrome","92.0.4515.107","OS X","10_15_7","c2ec3e1d97c081aeb487e375c8af45d6"
"153","10","1","""","1196.5","survey-text","16","1704145","0.0-16.0","{""Q0"":""}","""","""","""","2021-08-10 18:33:17","Mozilla/5.0 (Macintosh; Intel Mac OS X 10_15_7) AppleWebKit/537.36 (KHTML, like Gecko) Chrome/92.0.4515.107 Safari/537.36","Macintosh","Chrome","92.0.4515.107","OS X","10_15_7","c2ec3e1d97c081aeb487e375c8af45d6"
"154","10","1","""","2498.0999999940395","survey-likert","17","1706650","0.0-17.0","{""rp_ac_rate"":""}","[0,1,2,3,4]","""","""","2021-08-10 18:33:17","Mozilla/5.0 (Macintosh; Intel Mac OS X 10_15_7) AppleWebKit/537.36 (KHTML, like Gecko) Chrome/92.0.4515.107 Safari/537.36","Macintosh","Chrome","92.0.4515.107","OS X","10_15_7","c2ec3e1d97c081aeb487e375c8af45d6"
"155","10","1","""","3867.199999988079","survey-text","18","1710528","0.0-18.0","{""Q0"":""}","""","""","""","2021-08-10 18:33:17","Mozilla/5.0 (Macintosh; Intel Mac OS X 10_15_7) AppleWebKit/537.36 (KHTML, like Gecko) Chrome/92.0.4515.107 Safari/537.36","Macintosh","Chrome","92.0.4515.107","OS X","10_15_7","c2ec3e1d97c081aeb487e375c8af45d6"
"156","10","1","""","3193.5","survey-likert","19","1713726","0.0-19.0","{""rp_ac_rate"":""}","[0,1,2,3,4]","""","""","2021-08-10 18:33:17","Mozilla/5.0 (Macintosh; Intel Mac OS X 10_15_7) AppleWebKit/537.36 (KHTML, like Gecko) Chrome/92.0.4515.107 Safari/537.36","Macintosh","Chrome","92.0.4515.107","OS X","10_15_7","c2ec3e1d97c081aeb487e375c8af45d6"
"157","10","1","[{""page_index"":0,""viewing_time"":1969.6000000238419}]","1970.300000011921","instructions","20","1715705","0.0-20.0","""","""","""","""","2021-08-10 18:33:17","Mozilla/5.0 (Macintosh; Intel Mac OS X 10_15_7) AppleWebKit/537.36 (KHTML, like Gecko) Chrome/92.0.4515.107 Safari/537.36","Macintosh","Chrome","92.0.4515.107","OS X","10_15_7","c2ec3e1d97c081aeb487e375c8af45d6"
"158","10","1","""","88913.40000000596","survey-text","21","1804625","0.0-21.0","{""Q0"":""Sing A at the start of class.""}","""","""","""","2021-08-10 18:33:17","Mozilla/5.0 (Macintosh; Intel Mac OS X 10_15_7) AppleWebKit/537.36 (KHTML, like Gecko) Chrome/92.0.4515.107 Safari/537.36","Macintosh","Chrome","92.0.4515.107","OS X","10_15_7","c2ec3e1d97c081aeb487e375c8af45d6"
"159","10","1","""","48202.10000002384","survey-likert","22","1852836","0.0-22.0","{""rp_ac_rate"":3}","[0,1,2,3,4]","""","""","2021-08-10 18:33:17","Mozilla/5.0 (Macintosh; Intel Mac OS X 10_15_7) AppleWebKit/537.36 (KHTML, like Gecko) Chrome/92.0.4515.107 Safari/537.36","Macintosh","Chrome","92.0.4515.107","OS X","10_15_7","c2ec3e1d97c081aeb487e375c8af45d6"
"160","10","1","""","17891.90000000596","survey-text","23","1870739","0.0-23.0","{""Q0"":""Teaching C-clefs.""}","""","""","""","2021-08-10 18:33:17","Mozilla/5.0 (Macintosh; Intel Mac OS X 10_15_7) AppleWebKit/537.36 (KHTML, like Gecko) Chrome/92.0.4515.107 Safari/537.36","Macintosh","Chrome","92.0.4515.107","OS X","10_15_7","c2ec3e1d97c081aeb487e375c8af45d6"
"161","10","1","""","18750.80000001192","survey-likert","24","1889497","0.0-24.0","{""rp_ac_rate"":4}","[0,1,2,3,4]","""","""","2021-08-10 18:33:17","Mozilla/5.0 (Macintosh; Intel Mac OS X 10_15_7) AppleWebKit/537.36 (KHTML, like Gecko) Chrome/92.0.4515.107 Safari/537.36","Macintosh","Chrome","92.0.4515.107","OS X","10_15_7","c2ec3e1d97c081aeb487e375c8af45d6"
"162","10","1","""","3653.199999988079","survey-text","25","1893161","0.0-25.0","{""Q0"":""}","""","""","""","2021-08-10 18:33:17","Mozilla/5.0 (Macintosh; Intel Mac OS X 10_15_7) AppleWebKit/537.36 (KHTML, like Gecko) Chrome/92.0.4515.107 Safari/537.36","Macintosh","Chrome","92.0.4515.107","OS X","10_15_7","c2ec3e1d97c081aeb487e375c8af45d6"
"163","10","1","""","4786.5","survey-likert","26","1897955","0.0-26.0","{""rp_ac_rate"":""}","[0,1,2,3,4]","""","""","2021-08-10 18:33:17","Mozilla/5.0 (Macintosh; Intel Mac OS X 10_15_7) AppleWebKit/537.36 (KHTML, like Gecko) Chrome/92.0.4515.107 Safari/537.36","Macintosh","Chrome","92.0.4515.107","OS X","10_15_7","c2ec3e1d97c081aeb487e375c8af45d6"
"164","10","1","""","2099.5","survey-text","27","1900063","0.0-27.0","{""Q0"":""}","""","""","""","2021-08-10 18:33:17","Mozilla/5.0 (Macintosh; Intel Mac OS X 10_15_7) AppleWebKit/537.36 (KHTML, like Gecko) Chrome/92.0.4515.107 Safari/537.36","Macintosh","Chrome","92.0.4515.107","OS X","10_15_7","c2ec3e1d97c081aeb487e375c8af45d6"
"165","10","1","""","12107.59999999404","survey-likert","28","1912178","0.0-28.0","{""rp_ac_rate"":""}","[0,1,2,3,4]","""","""","2021-08-10 18:33:17","Mozilla/5.0 (Macintosh; Intel Mac OS X 10_15_7) AppleWebKit/537.36 (KHTML, like Gecko) Chrome/92.0.4515.107 Safari/537.36","Macintosh","Chrome","92.0.4515.107","OS X","10_15_7","c2ec3e1d97c081aeb487e375c8af45d6"
"166","10","1","""","49398.70000001788","survey-text","29","1961588","0.0-29.0","{""Q0"":""}","""","""","""","2021-08-10 18:33:17","Mozilla/5.0 (Macintosh; Intel Mac OS X 10_15_7) AppleWebKit/537.36 (KHTML, like Gecko) Chrome/92.0.4515.107 Safari/537.36","Macintosh","Chrome","92.0.4515.107","OS X","10_15_7","c2ec3e1d97c081aeb487e375c8af45d6"
"167","10","1","""","4490.4000000059605","survey-likert","30","1966088","0.0-30.0","{""rp_ac_rate"":""}","[0,1,2,3,4]","""","""","2021-08-10 18:33:17","Mozilla/5.0 (Macintosh; Intel Mac OS X 10_15_7) AppleWebKit/537.36 (KHTML, like Gecko) Chrome/92.0.4515.107 Safari/537.36","Macintosh","Chrome","92.0.4515.107","OS X","10_15_7","c2ec3e1d97c081aeb487e375c8af45d6"
"168","10","1","""","143862.40000000596","survey-text","31","2109964","0.0-31.0","{""Q0"":""}","""","""","""","2021-08-10 18:33:17","Mozilla/5.0 (Macintosh; Intel Mac OS X 10_15_7) AppleWebKit/537.36 (KHTML, like Gecko) Chrome/92.0.4515.107 Safari/537.36","Macintosh","Chrome","92.0.4515.107","OS X","10_15_7","c2ec3e1d97c081aeb487e375c8af45d6"
"169","10","1","""","15876.40000000596","html-slider-response","32","2125847","0.0-32.0","92","""","<p></p>","50","2021-08-10 18:33:17","Mozilla/5.0 (Macintosh; Intel Mac OS X 10_15_7) AppleWebKit/537.36 (KHTML, like Gecko) Chrome/92.0.4515.107 Safari/537.36","Macintosh","Chrome","92.0.4515.107","OS X","10_15_7","c2ec3e1d97c081aeb487e375c8af45d6"
"170","10","1","""","7194.5999999940395","survey-text","33","2133046","0.0-33.0","{""Q0"":""}","""","""","""","2021-08-10 18:33:17","Mozilla/5.0 (Macintosh; Intel Mac OS X 10_15_7) AppleWebKit/537.36 (KHTML, like Gecko) Chrome/92.0.4515.107 Safari/537.36","Macintosh","Chrome","92.0.4515.107","OS X","10_15_7","c2ec3e1d97c081aeb487e375c8af45d6"
"171","10","1","""","88643.40000000596","survey-text","34","2221698","0.0-34.0","{""Q0"":""Singing and dictation on scale-degree numbers.""}","""","""","""","2021-08-10 18:33:17","Mozilla/5.0 (Macintosh; Intel Mac OS X 10_15_7) AppleWebKit/537.36 (KHTML, like Gecko) Chrome/92.0.4515.107 Safari/537.36","Macintosh","Chrome","92.0.4515.107","OS X","10_15_7","c2ec3e1d97c081aeb487e375c8af45d6"
"172","10","1","""","4430","html-slider-response","35","2226130","0.0-35.0","55","""","<p></p>","50","2021-08-10 18:33:17","Mozilla/5.0 (Macintosh; Intel Mac OS X 10_15_7) AppleWebKit/537.36 (KHTML, like Gecko) Chrome/92.0.4515.107 Safari/537.36","Macintosh","Chrome","92.0.4515.107","OS X","10_15_7","c2ec3e1d97c081aeb487e375c8af45d6"
"173","10","1","[{""page_index"":0,""viewing_time"":8627.5}]","8628","instructions","36","2234763","0.0-36.0","""","""","""","""","2021-08-10 18:33:17","Mozilla/5.0 (Macintosh; Intel Mac OS X 10_15_7) AppleWebKit/537.36 (KHTML, like Gecko) Chrome/92.0.4515.107 Safari/537.36","Macintosh","Chrome","92.0.4515.107","OS X","10_15_7","c2ec3e1d97c081aeb487e375c8af45d6"
"174","10","1","[{""page_index"":0,""viewing_time"":4536.299999982119}]","4536.699999988079","instructions","37","2239300","0.0-37.0","""","""","""","""","2021-08-10 18:33:17","Mozilla/5.0 (Macintosh; Intel Mac OS X 10_15_7) AppleWebKit/537.36 (KHTML, like Gecko) Chrome/92.0.4515.107 Safari/537.36","Macintosh","Chrome","92.0.4515.107","OS X","10_15_7","c2ec3e1d97c081aeb487e375c8af45d6"
"175","10","1","""","41681","survey-multi-select","38","2280997","0.0-38.0","{""Colors"":[""Music theory (Graduate, Written)"",""Music theory (Graduate , Aural)""]}","[0]","""","""","2021-08-10 18:33:17","Mozilla/5.0 (Macintosh; Intel Mac OS X 10_15_7) AppleWebKit/537.36 (KHTML, like Gecko) Chrome/92.0.4515.107 Safari/537.36","Macintosh","Chrome","92.0.4515.107","OS X","10_15_7","c2ec3e1d97c081aeb487e375c8af45d6"
"176","10","1","""","21360.09999999404","survey-text","39","2302370","0.0-39.0","{""Q0"":""40""}","""","""","""","2021-08-10 18:33:17","Mozilla/5.0 (Macintosh; Intel Mac OS X 10_15_7) AppleWebKit/537.36 (KHTML, like Gecko) Chrome/92.0.4515.107 Safari/537.36","Macintosh","Chrome","92.0.4515.107","OS X","10_15_7","c2ec3e1d97c081aeb487e375c8af45d6"
"177","10","1","""","4938.4000000059605","survey-multi-select","40","2307321","0.0-40.0","{""Colors"":[""Ph.D. in Music Theory""]}","[0]","""","""","2021-08-10 18:33:17","Mozilla/5.0 (Macintosh; Intel Mac OS X 10_15_7) AppleWebKit/537.36 (KHTML, like Gecko) Chrome/92.0.4515.107 Safari/537.36","Macintosh","Chrome","92.0.4515.107","OS X","10_15_7","c2ec3e1d97c081aeb487e375c8af45d6"
"178","10","1","""","31938.70000001788","survey-text","41","2339268","0.0-41.0","{""Q0"":""32""}","""","""","""","2021-08-10 18:33:17","Mozilla/5.0 (Macintosh; Intel Mac OS X 10_15_7) AppleWebKit/537.36 (KHTML, like Gecko) Chrome/92.0.4515.107 Safari/537.36","Macintosh","Chrome","92.0.4515.107","OS X","10_15_7","c2ec3e1d97c081aeb487e375c8af45d6"
"179","10","1","""","10984.300000011921","survey-multi-select","42","2350257","0.0-42.0","{""Colors"":[""Private institution"",""Conservatory-style professional music school (within a university)"",""NASM-accredited music program""]}","[0]","""","""","2021-08-10 18:33:17","Mozilla/5.0 (Macintosh; Intel Mac OS X 10_15_7) AppleWebKit/537.36 (KHTML, like Gecko) Chrome/92.0.4515.107 Safari/537.36","Macintosh","Chrome","92.0.4515.107","OS X","10_15_7","c2ec3e1d97c081aeb487e375c8af45d6"
"180","10","1","""","10674","survey-multi-select","43","2360944","0.0-43.0","{""Colors"":[""Full-Time Tenured""]}","[0]","""","""","2021-08-10 18:33:17","Mozilla/5.0 (Macintosh; Intel Mac OS X 10_15_7) AppleWebKit/537.36 (KHTML, like Gecko) Chrome/92.0.4515.107 Safari/537.36","Macintosh","Chrome","92.0.4515.107","OS X","10_15_7","c2ec3e1d97c081aeb487e375c8af45d6"
"181","10","1","[{""page_index"":0,""viewing_time"":9081.40000000596}]","9081.90000000596","instructions","44","2370037","0.0-44.0","""","""","""","""","2021-08-10 18:33:17","Mozilla/5.0 (Macintosh; Intel Mac OS X 10_15_7) AppleWebKit/537.36 (KHTML, like Gecko) Chrome/92.0.4515.107 Safari/537.36","Macintosh","Chrome","92.0.4515.107","OS X","10_15_7","c2ec3e1d97c081aeb487e375c8af45d6"
"182","10","1","""","9095.40000000596","survey-text","45","2379138","0.0-45.0","{""Q0"":""18""}","""","""","""","2021-08-10 18:33:17","Mozilla/5.0 (Macintosh; Intel Mac OS X 10_15_7) AppleWebKit/537.36 (KHTML, like Gecko) Chrome/92.0.4515.107 Safari/537.36","Macintosh","Chrome","92.0.4515.107","OS X","10_15_7","c2ec3e1d97c081aeb487e375c8af45d6"
"183","10","1","""","45056.5","survey-multi-select","46","2424209","0.0-46.0","{""Colors"":[""Moveable-Do (La-based minor)"",""Fixed Do without inflections""]}","[0]","""","""","2021-08-10 18:33:17","Mozilla/5.0 (Macintosh; Intel Mac OS X 10_15_7) AppleWebKit/537.36 (KHTML, like Gecko) Chrome/92.0.4515.107 Safari/537.36","Macintosh","Chrome","92.0.4515.107","OS X","10_15_7","c2ec3e1d97c081aeb487e375c8af45d6"
"184","10","1","""","15569.199999988079","survey-multi-select","47","2439796","0.0-47.0","{""Colors"":[""Scale-degree numbers without inflections (e.g. An F# in the key of C is sung as Fa)""]}","[0]","""","""","2021-08-10 18:33:17","Mozilla/5.0 (Macintosh; Intel Mac OS X 10_15_7) AppleWebKit/537.36 (KHTML, like Gecko) Chrome/92.0.4515.107 Safari/537.36","Macintosh","Chrome","92.0.4515.107","OS X","10_15_7","c2ec3e1d97c081aeb487e375c8af45d6"
"185","10","1","""","13250.300000011921","survey-multi-select","48","2453060","0.0-48.0","{""Colors"":[""Fixed Do without inflections""]}","[0]","""","""","2021-08-10 18:33:17","Mozilla/5.0 (Macintosh; Intel Mac OS X 10_15_7) AppleWebKit/537.36 (KHTML, like Gecko) Chrome/92.0.4515.107 Safari/537.36","Macintosh","Chrome","92.0.4515.107","OS X","10_15_7","c2ec3e1d97c081aeb487e375c8af45d6"
"186","10","1","""","9075.5","survey-multi-select","49","2462150","0.0-49.0","{""Colors"":[""Scale-degree numbers without inflections""]}","[0]","""","""","2021-08-10 18:33:17","Mozilla/5.0 (Macintosh; Intel Mac OS X 10_15_7) AppleWebKit/537.36 (KHTML, like Gecko) Chrome/92.0.4515.107 Safari/537.36","Macintosh","Chrome","92.0.4515.107","OS X","10_15_7","c2ec3e1d97c081aeb487e375c8af45d6"
"187","10","1","""","21371.19999998808","survey-text","50","2483535","0.0-50.0","{""Q0"":""10""}","""","""","""","2021-08-10 18:33:17","Mozilla/5.0 (Macintosh; Intel Mac OS X 10_15_7) AppleWebKit/537.36 (KHTML, like Gecko) Chrome/92.0.4515.107 Safari/537.36","Macintosh","Chrome","92.0.4515.107","OS X","10_15_7","c2ec3e1d97c081aeb487e375c8af45d6"
"188","10","1","""","13129.600000023842","survey-likert","51","2496668","0.0-51.0","{""often"":2,""rp"":4}","[0,1]","""","""","2021-08-10 18:33:17","Mozilla/5.0 (Macintosh; Intel Mac OS X 10_15_7) AppleWebKit/537.36 (KHTML, like Gecko) Chrome/92.0.4515.107 Safari/537.36","Macintosh","Chrome","92.0.4515.107","OS X","10_15_7","c2ec3e1d97c081aeb487e375c8af45d6"
"189","10","1","""","7794.4000000059605","survey-likert","52","2504470","0.0-52.0","{""often"":1,""rp"":4}","[0,1]","""","""","2021-08-10 18:33:17","Mozilla/5.0 (Macintosh; Intel Mac OS X 10_15_7) AppleWebKit/537.36 (KHTML, like Gecko) Chrome/92.0.4515.107 Safari/537.36","Macintosh","Chrome","92.0.4515.107","OS X","10_15_7","c2ec3e1d97c081aeb487e375c8af45d6"
"190","10","1","""","46929.70000001788","survey-multi-choice","53","2551417","0.0-53.0","{""theory_track"":""Yes"",""pitch_mem"":""Yes"",""score_transp"":""Yes""}","[0,1,2]","""","""","2021-08-10 18:33:17","Mozilla/5.0 (Macintosh; Intel Mac OS X 10_15_7) AppleWebKit/537.36 (KHTML, like Gecko) Chrome/92.0.4515.107 Safari/537.36","Macintosh","Chrome","92.0.4515.107","OS X","10_15_7","c2ec3e1d97c081aeb487e375c8af45d6"
"191","10","1","""","76796.5","survey-multi-select","54","2628238","0.0-54.0","{""Colors"":[""Private college or university"",""Conservatory-style professional music school (within a university)""]}","[0]","""","""","2021-08-10 18:33:17","Mozilla/5.0 (Macintosh; Intel Mac OS X 10_15_7) AppleWebKit/537.36 (KHTML, like Gecko) Chrome/92.0.4515.107 Safari/537.36","Macintosh","Chrome","92.0.4515.107","OS X","10_15_7","c2ec3e1d97c081aeb487e375c8af45d6"
"192","10","1","""","7682.5","survey-text","55","2635933","0.0-55.0","{""Q0"":""900""}","""","""","""","2021-08-10 18:33:17","Mozilla/5.0 (Macintosh; Intel Mac OS X 10_15_7) AppleWebKit/537.36 (KHTML, like Gecko) Chrome/92.0.4515.107 Safari/537.36","Macintosh","Chrome","92.0.4515.107","OS X","10_15_7","c2ec3e1d97c081aeb487e375c8af45d6"
"193","10","1","""","17261.5","survey-multi-select","56","2653205","0.0-56.0","{""Colors"":[""Certificate (e.g. Recording Arts, Songwriting)"",""AP Music Theory Classes"",""Bachelor of Music (BM)"",""Masters (MA)"",""Masters (MM)"",""Perfomer's Certificate/Graduate Performance Diploma"",""Doctorate (DMA or DM)"",""Doctorate (Ph.D.)""]}","[0]","""","""","2021-08-10 18:33:17","Mozilla/5.0 (Macintosh; Intel Mac OS X 10_15_7) AppleWebKit/537.36 (KHTML, like Gecko) Chrome/92.0.4515.107 Safari/537.36","Macintosh","Chrome","92.0.4515.107","OS X","10_15_7","c2ec3e1d97c081aeb487e375c8af45d6"
"194","10","1","""","11252.800000011921","survey-multi-select","57","2664472","0.0-57.0","{""Colors"":[""Graduate student (teaching assistants)""]}","[0]","""","""","2021-08-10 18:33:17","Mozilla/5.0 (Macintosh; Intel Mac OS X 10_15_7) AppleWebKit/537.36 (KHTML, like Gecko) Chrome/92.0.4515.107 Safari/537.36","Macintosh","Chrome","92.0.4515.107","OS X","10_15_7","c2ec3e1d97c081aeb487e375c8af45d6"
"195","10","1","""","284377","survey-multi-select","58","2948873","0.0-58.0","{""Colors"":[""Graduate degree in music theory or composition""]}","[0]","""","""","2021-08-10 18:33:17","Mozilla/5.0 (Macintosh; Intel Mac OS X 10_15_7) AppleWebKit/537.36 (KHTML, like Gecko) Chrome/92.0.4515.107 Safari/537.36","Macintosh","Chrome","92.0.4515.107","OS X","10_15_7","c2ec3e1d97c081aeb487e375c8af45d6"
"196","10","1","""","161069.90000000596","survey-text","59","3109960","0.0-59.0","{""Q0"":""USA""}","""","""","""","2021-08-10 18:33:17","Mozilla/5.0 (Macintosh; Intel Mac OS X 10_15_7) AppleWebKit/537.36 (KHTML, like Gecko) Chrome/92.0.4515.107 Safari/537.36","Macintosh","Chrome","92.0.4515.107","OS X","10_15_7","c2ec3e1d97c081aeb487e375c8af45d6"
"197","10","1","""","3315.4000000059605","survey-text","60","3113282","0.0-60.0","{""Q0"":""NY""}","""","""","""","2021-08-10 18:33:17","Mozilla/5.0 (Macintosh; Intel Mac OS X 10_15_7) AppleWebKit/537.36 (KHTML, like Gecko) Chrome/92.0.4515.107 Safari/537.36","Macintosh","Chrome","92.0.4515.107","OS X","10_15_7","c2ec3e1d97c081aeb487e375c8af45d6"
"198","10","1","""","8667.700000017881","survey-text","61","3121954","0.0-61.0","{""Q0"":""No thanks, excellent work!""}","""","""","""","2021-08-10 18:33:17","Mozilla/5.0 (Macintosh; Intel Mac OS X 10_15_7) AppleWebKit/537.36 (KHTML, like Gecko) Chrome/92.0.4515.107 Safari/537.36","Macintosh","Chrome","92.0.4515.107","OS X","10_15_7","c2ec3e1d97c081aeb487e375c8af45d6"
"199","10","1","[{""page_index"":0,""viewing_time"":7229.699999988079}]","7230.0999999940395","instructions","62","3129187","0.0-62.0","""","""","""","""","2021-08-10 18:33:17","Mozilla/5.0 (Macintosh; Intel Mac OS X 10_15_7) AppleWebKit/537.36 (KHTML, like Gecko) Chrome/92.0.4515.107 Safari/537.36","Macintosh","Chrome","92.0.4515.107","OS X","10_15_7","c2ec3e1d97c081aeb487e375c8af45d6"
"200","1061","1","[{""page_index"":0,""viewing_time"":5545},{""page_index"":1,""viewing_time"":6018},{""page_index"":2,""viewing_time"":3533}]","15097","instructions","0","15099","0.0-0.0","""","""","""","""","2021-12-02 18:35:59","Mozilla/5.0 (Macintosh; Intel Mac OS X 10_15_7) AppleWebKit/605.1.15 (KHTML, like Gecko) Version/15.1 Safari/605.1.15","Macintosh","Safari","15.1","OS X","10_15_7","447d70a80c75dce987d9c5508038710f"
"201","1061","1","[{""page_index"":0,""viewing_time"":2526.0000000000036}]","2526.0000000000036","instructions","1","17631","0.0-1.0","""","""","""","""","2021-12-02 18:35:59","Mozilla/5.0 (Macintosh; Intel Mac OS X 10_15_7) AppleWebKit/605.1.15 (KHTML, like Gecko) Version/15.1 Safari/605.1.15","Macintosh","Safari","15.1","OS X","10_15_7","447d70a80c75dce987d9c5508038710f"
"202","1061","1","""","708057","survey-likert","2","725666","0.0-2.0","{""rp_name_relation_06"":6,""ap_produce_440_24"":0,""ap_lose_28"":5,""ap_name_abref_25"":6,""rp_id_44_08"":6,""ap_remember_group_27"":3,""ap_produce_interval_19"":0,""rp_lose_13"":5,""rp_to_ap_14"":1,""rp_id_interval_04"":6,""ap_id_interval_18"":1,""ap_id_440_23"":0,""rp_produce_abref_11"":0,""ap_perceive_same_21"":0,""ap_ref_tonal_16"":3,""rp_perceive_same_07"":5,""ap_to_rp_22"":2,""rp_remember_group_12"":0,""ap_ref_tonal_15"":0,""rp_produce_440_09"":6,""rp_ref_tonal_01"":1,""ap_produce_tonality_17"":0,""ap_name_relation_20"":0,""rp_produce_tonality_02"":5,""ap_ref_tonal_03"":0,""rp_produce_interval_05"":5,""rp_name_abref_10"":0,""ap_produce_abref_26"":5}","[5,23,27,24,7,26,18,12,13,3,17,22,10,20,15,6,21,11,14,8,0,16,19,1,2,4,9,25]","""","""","2021-12-02 18:35:59","Mozilla/5.0 (Macintosh; Intel Mac OS X 10_15_7) AppleWebKit/605.1.15 (KHTML, like Gecko) Version/15.1 Safari/605.1.15","Macintosh","Safari","15.1","OS X","10_15_7","447d70a80c75dce987d9c5508038710f"
"203","1061","1","""","247623","survey-text","3","973280","0.0-3.0","{""Q0"":""I would say that relative pitch involves the ability to determine a note (or set of notes) from a given reference tone or key.   The determination can be active (producing a pitch) or passive (recognizing or labeling a pitch) ""}","""","""","""","2021-12-02 18:35:59","Mozilla/5.0 (Macintosh; Intel Mac OS X 10_15_7) AppleWebKit/605.1.15 (KHTML, like Gecko) Version/15.1 Safari/605.1.15","Macintosh","Safari","15.1","OS X","10_15_7","447d70a80c75dce987d9c5508038710f"
"204","1061","1","""","133663.00000000023","survey-text","4","1106938","0.0-4.0","{""Q0"":""Absolute pitch includes the ability to determine a note (or group of notes) without a prior reference point.  The determination can be active (producing a pitch) or passive, that is...labeling or identifying (aurally) a pitch.""}","""","""","""","2021-12-02 18:35:59","Mozilla/5.0 (Macintosh; Intel Mac OS X 10_15_7) AppleWebKit/605.1.15 (KHTML, like Gecko) Version/15.1 Safari/605.1.15","Macintosh","Safari","15.1","OS X","10_15_7","447d70a80c75dce987d9c5508038710f"
"205","1061","1","[{""page_index"":0,""viewing_time"":6495}]","6495","instructions","5","1113436","0.0-5.0","""","""","""","""","2021-12-02 18:35:59","Mozilla/5.0 (Macintosh; Intel Mac OS X 10_15_7) AppleWebKit/605.1.15 (KHTML, like Gecko) Version/15.1 Safari/605.1.15","Macintosh","Safari","15.1","OS X","10_15_7","447d70a80c75dce987d9c5508038710f"
"206","1061","1","""","230654","survey-likert","6","1344085","0.0-6.0","{""ap_normal_13"":0,""rp_tonedeaf_5"":0,""ap_people_all_8"":0,""rp_trained_ap_4"":4,""ap_tonedeaf_12"":0,""ap_impaired_9"":2,""rp_override_3"":5,""ap_trained_ap_11"":0,""rp_normal_6"":0,""ap_better_others_14"":6,""rp_better_others_7"":6,""rp_impaired_2"":3,""ap_override_10"":3,""re_people_al_1"":5}","[12,4,7,3,11,8,2,10,5,13,6,1,9,0]","""","""","2021-12-02 18:35:59","Mozilla/5.0 (Macintosh; Intel Mac OS X 10_15_7) AppleWebKit/605.1.15 (KHTML, like Gecko) Version/15.1 Safari/605.1.15","Macintosh","Safari","15.1","OS X","10_15_7","447d70a80c75dce987d9c5508038710f"
"207","1061","1","[{""page_index"":0,""viewing_time"":4351}]","4351","instructions","7","1348442","0.0-7.0","""","""","""","""","2021-12-02 18:35:59","Mozilla/5.0 (Macintosh; Intel Mac OS X 10_15_7) AppleWebKit/605.1.15 (KHTML, like Gecko) Version/15.1 Safari/605.1.15","Macintosh","Safari","15.1","OS X","10_15_7","447d70a80c75dce987d9c5508038710f"
"208","1061","1","[{""page_index"":0,""viewing_time"":2599}]","2599","instructions","8","1351043","0.0-8.0","""","""","""","""","2021-12-02 18:35:59","Mozilla/5.0 (Macintosh; Intel Mac OS X 10_15_7) AppleWebKit/605.1.15 (KHTML, like Gecko) Version/15.1 Safari/605.1.15","Macintosh","Safari","15.1","OS X","10_15_7","447d70a80c75dce987d9c5508038710f"
"209","1061","1","""","26161","html-slider-response","9","1377207","0.0-9.0","69","""","<p></p>","50","2021-12-02 18:35:59","Mozilla/5.0 (Macintosh; Intel Mac OS X 10_15_7) AppleWebKit/605.1.15 (KHTML, like Gecko) Version/15.1 Safari/605.1.15","Macintosh","Safari","15.1","OS X","10_15_7","447d70a80c75dce987d9c5508038710f"
"210","1061","1","""","8715","html-slider-response","10","1385922","0.0-10.0","0","""","<p></p>","50","2021-12-02 18:35:59","Mozilla/5.0 (Macintosh; Intel Mac OS X 10_15_7) AppleWebKit/605.1.15 (KHTML, like Gecko) Version/15.1 Safari/605.1.15","Macintosh","Safari","15.1","OS X","10_15_7","447d70a80c75dce987d9c5508038710f"
"211","1061","1","""","214597.99999999977","survey-likert","11","1600591","0.0-11.0","{""inst_priority_ap_01"":2,""inst_priority_rp_02"":3,""you_priority_ap_03"":0,""you_priority_rp_04"":4}","[0,1,2,3]","""","""","2021-12-02 18:35:59","Mozilla/5.0 (Macintosh; Intel Mac OS X 10_15_7) AppleWebKit/605.1.15 (KHTML, like Gecko) Version/15.1 Safari/605.1.15","Macintosh","Safari","15.1","OS X","10_15_7","447d70a80c75dce987d9c5508038710f"
"212","1061","1","""","42361","survey-text","12","1642955","0.0-12.0","{""Q0"":""Singing intervals, once given a reference tone""}","""","""","""","2021-12-02 18:35:59","Mozilla/5.0 (Macintosh; Intel Mac OS X 10_15_7) AppleWebKit/605.1.15 (KHTML, like Gecko) Version/15.1 Safari/605.1.15","Macintosh","Safari","15.1","OS X","10_15_7","447d70a80c75dce987d9c5508038710f"
"213","1061","1","""","35114","survey-likert","13","1678074","0.0-13.0","{""use_skill_freq_01"":6,""easy_teach_02"":5,""easy_to_learn_03"":3,""helps_relative_04"":6,""reps_relative_05"":6}","[0,1,2,3,4]","""","""","2021-12-02 18:35:59","Mozilla/5.0 (Macintosh; Intel Mac OS X 10_15_7) AppleWebKit/605.1.15 (KHTML, like Gecko) Version/15.1 Safari/605.1.15","Macintosh","Safari","15.1","OS X","10_15_7","447d70a80c75dce987d9c5508038710f"
"214","1061","1","""","22959.999999999767","survey-text","14","1701038","0.0-14.0","{""Q0"":""Aural identification of intervals, once given a reference point. ""}","""","""","""","2021-12-02 18:35:59","Mozilla/5.0 (Macintosh; Intel Mac OS X 10_15_7) AppleWebKit/605.1.15 (KHTML, like Gecko) Version/15.1 Safari/605.1.15","Macintosh","Safari","15.1","OS X","10_15_7","447d70a80c75dce987d9c5508038710f"
"215","1061","1","""","29748.000000000233","survey-likert","15","1730789","0.0-15.0","{""use_skill_freq_01"":6,""easy_teach_02"":4,""easy_to_learn_03"":4,""helps_relative_04"":6,""reps_relative_05"":6}","[0,1,2,3,4]","""","""","2021-12-02 18:35:59","Mozilla/5.0 (Macintosh; Intel Mac OS X 10_15_7) AppleWebKit/605.1.15 (KHTML, like Gecko) Version/15.1 Safari/605.1.15","Macintosh","Safari","15.1","OS X","10_15_7","447d70a80c75dce987d9c5508038710f"
"216","1061","1","""","65762","survey-text","16","1796553","0.0-16.0","{""Q0"":""Identification of scale degrees, within a given tonality. ""}","""","""","""","2021-12-02 18:35:59","Mozilla/5.0 (Macintosh; Intel Mac OS X 10_15_7) AppleWebKit/605.1.15 (KHTML, like Gecko) Version/15.1 Safari/605.1.15","Macintosh","Safari","15.1","OS X","10_15_7","447d70a80c75dce987d9c5508038710f"
"217","1061","1","""","27064.999999999767","survey-likert","17","1823621","0.0-17.0","{""use_skill_freq_01"":5,""easy_teach_02"":5,""easy_to_learn_03"":5,""helps_relative_04"":6,""reps_relative_05"":6}","[0,1,2,3,4]","""","""","2021-12-02 18:35:59","Mozilla/5.0 (Macintosh; Intel Mac OS X 10_15_7) AppleWebKit/605.1.15 (KHTML, like Gecko) Version/15.1 Safari/605.1.15","Macintosh","Safari","15.1","OS X","10_15_7","447d70a80c75dce987d9c5508038710f"
"218","1061","1","""","55111","survey-text","18","1878735","0.0-18.0","{""Q0"":""Written identification of intervals (musical dictation) given a reference tone. ""}","""","""","""","2021-12-02 18:35:59","Mozilla/5.0 (Macintosh; Intel Mac OS X 10_15_7) AppleWebKit/605.1.15 (KHTML, like Gecko) Version/15.1 Safari/605.1.15","Macintosh","Safari","15.1","OS X","10_15_7","447d70a80c75dce987d9c5508038710f"
"219","1061","1","""","17131","survey-likert","19","1895869","0.0-19.0","{""use_skill_freq_01"":6,""easy_teach_02"":6,""easy_to_learn_03"":5,""helps_relative_04"":6,""reps_relative_05"":6}","[0,1,2,3,4]","""","""","2021-12-02 18:35:59","Mozilla/5.0 (Macintosh; Intel Mac OS X 10_15_7) AppleWebKit/605.1.15 (KHTML, like Gecko) Version/15.1 Safari/605.1.15","Macintosh","Safari","15.1","OS X","10_15_7","447d70a80c75dce987d9c5508038710f"
"220","1061","1","""","110115","survey-text","20","2005986","0.0-20.0","{""Q0"":""Written identification (music dictation) of melodies, given a reference tone. ""}","""","""","""","2021-12-02 18:35:59","Mozilla/5.0 (Macintosh; Intel Mac OS X 10_15_7) AppleWebKit/605.1.15 (KHTML, like Gecko) Version/15.1 Safari/605.1.15","Macintosh","Safari","15.1","OS X","10_15_7","447d70a80c75dce987d9c5508038710f"
"221","1061","1","""","11878","survey-likert","21","2017867","0.0-21.0","{""use_skill_freq_01"":6,""easy_teach_02"":6,""easy_to_learn_03"":5,""helps_relative_04"":6,""reps_relative_05"":6}","[0,1,2,3,4]","""","""","2021-12-02 18:35:59","Mozilla/5.0 (Macintosh; Intel Mac OS X 10_15_7) AppleWebKit/605.1.15 (KHTML, like Gecko) Version/15.1 Safari/605.1.15","Macintosh","Safari","15.1","OS X","10_15_7","447d70a80c75dce987d9c5508038710f"
"222","1061","1","[{""page_index"":0,""viewing_time"":2675}]","2675","instructions","22","2020546","0.0-22.0","""","""","""","""","2021-12-02 18:35:59","Mozilla/5.0 (Macintosh; Intel Mac OS X 10_15_7) AppleWebKit/605.1.15 (KHTML, like Gecko) Version/15.1 Safari/605.1.15","Macintosh","Safari","15.1","OS X","10_15_7","447d70a80c75dce987d9c5508038710f"
"223","1061","1","""","261653","survey-text","23","2282199","0.0-23.0","","","","","","","","","","","",""
"224","weaned\"" from such help. """"}""","""","""","""","2021-12-02 18:35:59","72.229.54.116","Mozilla/5.0 (Macintosh; Intel Mac OS X 10_15_7) AppleWebKit/605.1.15 (KHTML, like Gecko) Version/15.1 Safari/605.1.15","Macintosh","Safari","15.1","OS X","10_15_7","447d70a80c75dce987d9c5508038710f","","","","","","",""
"225","1061","1","""","34262","survey-likert","24","2316463","0.0-24.0","{""teach_freq_ap_01"":0,""easy_teach_02"":7,""eash_learn_03"":7,""foster_ap_04"":7,""represent_ap_05"":7}","[0,1,2,3,4]","""","""","2021-12-02 18:35:59","Mozilla/5.0 (Macintosh; Intel Mac OS X 10_15_7) AppleWebKit/605.1.15 (KHTML, like Gecko) Version/15.1 Safari/605.1.15","Macintosh","Safari","15.1","OS X","10_15_7","447d70a80c75dce987d9c5508038710f"
"226","1061","1","""","16095","survey-text","25","2332562","0.0-25.0","{""Q0"":""No answer""}","""","""","""","2021-12-02 18:35:59","Mozilla/5.0 (Macintosh; Intel Mac OS X 10_15_7) AppleWebKit/605.1.15 (KHTML, like Gecko) Version/15.1 Safari/605.1.15","Macintosh","Safari","15.1","OS X","10_15_7","447d70a80c75dce987d9c5508038710f"
"227","1061","1","""","11015","survey-likert","26","2343580","0.0-26.0","{""teach_freq_ap_01"":7,""easy_teach_02"":7,""eash_learn_03"":7,""foster_ap_04"":7,""represent_ap_05"":7}","[0,1,2,3,4]","""","""","2021-12-02 18:35:59","Mozilla/5.0 (Macintosh; Intel Mac OS X 10_15_7) AppleWebKit/605.1.15 (KHTML, like Gecko) Version/15.1 Safari/605.1.15","Macintosh","Safari","15.1","OS X","10_15_7","447d70a80c75dce987d9c5508038710f"
"228","1061","1","""","8796","survey-text","27","2352379","0.0-27.0","{""Q0"":""No answer""}","""","""","""","2021-12-02 18:35:59","Mozilla/5.0 (Macintosh; Intel Mac OS X 10_15_7) AppleWebKit/605.1.15 (KHTML, like Gecko) Version/15.1 Safari/605.1.15","Macintosh","Safari","15.1","OS X","10_15_7","447d70a80c75dce987d9c5508038710f"
"229","1061","1","""","10830","survey-likert","28","2363212","0.0-28.0","{""teach_freq_ap_01"":7,""easy_teach_02"":7,""eash_learn_03"":7,""foster_ap_04"":7,""represent_ap_05"":7}","[0,1,2,3,4]","""","""","2021-12-02 18:35:59","Mozilla/5.0 (Macintosh; Intel Mac OS X 10_15_7) AppleWebKit/605.1.15 (KHTML, like Gecko) Version/15.1 Safari/605.1.15","Macintosh","Safari","15.1","OS X","10_15_7","447d70a80c75dce987d9c5508038710f"
"230","1061","1","""","5845","survey-text","29","2369060","0.0-29.0","{""Q0"":""No answer""}","""","""","""","2021-12-02 18:35:59","Mozilla/5.0 (Macintosh; Intel Mac OS X 10_15_7) AppleWebKit/605.1.15 (KHTML, like Gecko) Version/15.1 Safari/605.1.15","Macintosh","Safari","15.1","OS X","10_15_7","447d70a80c75dce987d9c5508038710f"
"231","1061","1","""","9031","survey-likert","30","2378095","0.0-30.0","{""teach_freq_ap_01"":7,""easy_teach_02"":7,""eash_learn_03"":7,""foster_ap_04"":7,""represent_ap_05"":7}","[0,1,2,3,4]","""","""","2021-12-02 18:35:59","Mozilla/5.0 (Macintosh; Intel Mac OS X 10_15_7) AppleWebKit/605.1.15 (KHTML, like Gecko) Version/15.1 Safari/605.1.15","Macintosh","Safari","15.1","OS X","10_15_7","447d70a80c75dce987d9c5508038710f"
"232","1061","1","""","5361","survey-text","31","2383459","0.0-31.0","{""Q0"":""No answer""}","""","""","""","2021-12-02 18:35:59","Mozilla/5.0 (Macintosh; Intel Mac OS X 10_15_7) AppleWebKit/605.1.15 (KHTML, like Gecko) Version/15.1 Safari/605.1.15","Macintosh","Safari","15.1","OS X","10_15_7","447d70a80c75dce987d9c5508038710f"
"233","1061","1","""","7718","survey-likert","32","2391180","0.0-32.0","{""teach_freq_ap_01"":7,""easy_teach_02"":7,""eash_learn_03"":7,""foster_ap_04"":7,""represent_ap_05"":7}","[0,1,2,3,4]","""","""","2021-12-02 18:35:59","Mozilla/5.0 (Macintosh; Intel Mac OS X 10_15_7) AppleWebKit/605.1.15 (KHTML, like Gecko) Version/15.1 Safari/605.1.15","Macintosh","Safari","15.1","OS X","10_15_7","447d70a80c75dce987d9c5508038710f"
"234","1061","1","""","157777","survey-text","33","2548958","0.0-33.0","{""Q0"":""Singing----Fixed-do solfege, using graded materials.   Folk songs.  Bach chorales. Singing of intervals.  Take a musical example with a melody and a bass line ---sing one part and play the other.  Dictation in one and two parts.  Chordal dictation, using chord progressions and chorales.   ""}","""","""","""","2021-12-02 18:35:59","Mozilla/5.0 (Macintosh; Intel Mac OS X 10_15_7) AppleWebKit/605.1.15 (KHTML, like Gecko) Version/15.1 Safari/605.1.15","Macintosh","Safari","15.1","OS X","10_15_7","447d70a80c75dce987d9c5508038710f"
"235","1061","1","""","11626.999999999534","html-slider-response","34","2560588","0.0-34.0","99","""","<p></p>","50","2021-12-02 18:35:59","Mozilla/5.0 (Macintosh; Intel Mac OS X 10_15_7) AppleWebKit/605.1.15 (KHTML, like Gecko) Version/15.1 Safari/605.1.15","Macintosh","Safari","15.1","OS X","10_15_7","447d70a80c75dce987d9c5508038710f"
"236","1061","1","""","47064","survey-text","35","2607655","0.0-35.0","{""Q0"":""More sight-singing and examples from the repertoire (as opposed to an aural skills text book)""}","""","""","""","2021-12-02 18:35:59","Mozilla/5.0 (Macintosh; Intel Mac OS X 10_15_7) AppleWebKit/605.1.15 (KHTML, like Gecko) Version/15.1 Safari/605.1.15","Macintosh","Safari","15.1","OS X","10_15_7","447d70a80c75dce987d9c5508038710f"
"237","1061","1","""","146733","survey-text","36","2754386","0.0-36.0","{""Q0"":""Singing intervals, once given a reference point.   Aural identification of intervals.  Certain rhythm excersices ---a sort of call and response.   Or using two people to teach two against three, for example.  ""}","""","""","""","2021-12-02 18:35:59","Mozilla/5.0 (Macintosh; Intel Mac OS X 10_15_7) AppleWebKit/605.1.15 (KHTML, like Gecko) Version/15.1 Safari/605.1.15","Macintosh","Safari","15.1","OS X","10_15_7","447d70a80c75dce987d9c5508038710f"
"238","1061","1","""","7410","html-slider-response","37","2761800","0.0-37.0","14","""","<p></p>","50","2021-12-02 18:35:59","Mozilla/5.0 (Macintosh; Intel Mac OS X 10_15_7) AppleWebKit/605.1.15 (KHTML, like Gecko) Version/15.1 Safari/605.1.15","Macintosh","Safari","15.1","OS X","10_15_7","447d70a80c75dce987d9c5508038710f"
"239","1061","1","[{""page_index"":0,""viewing_time"":2330.9999999995343}]","2330.9999999995343","instructions","38","2764133","0.0-38.0","""","""","""","""","2021-12-02 18:35:59","Mozilla/5.0 (Macintosh; Intel Mac OS X 10_15_7) AppleWebKit/605.1.15 (KHTML, like Gecko) Version/15.1 Safari/605.1.15","Macintosh","Safari","15.1","OS X","10_15_7","447d70a80c75dce987d9c5508038710f"
"240","1061","1","[{""page_index"":0,""viewing_time"":4213.000000000466}]","4214","instructions","39","2768350","0.0-39.0","""","""","""","""","2021-12-02 18:35:59","Mozilla/5.0 (Macintosh; Intel Mac OS X 10_15_7) AppleWebKit/605.1.15 (KHTML, like Gecko) Version/15.1 Safari/605.1.15","Macintosh","Safari","15.1","OS X","10_15_7","447d70a80c75dce987d9c5508038710f"
"241","1061","1","""","127968","survey-multi-select","40","2896322","0.0-40.0","{""Colors"":[""Music theory (Remedial Undergraduate, Aural)"",""Music theory (First Year Undergraduate, Aural)"",""Music theory (Second Year Undergraduate, Aural)"",""Music theory (Remedial Graduate , Aural)"",""Music theory (Graduate , Aural)""]}","[0]","""","""","2021-12-02 18:35:59","Mozilla/5.0 (Macintosh; Intel Mac OS X 10_15_7) AppleWebKit/605.1.15 (KHTML, like Gecko) Version/15.1 Safari/605.1.15","Macintosh","Safari","15.1","OS X","10_15_7","447d70a80c75dce987d9c5508038710f"
