run_id,condition,view_history,rt,trial_type,trial_index,time_elapsed,internal_node_id,response,question_order,stimulus,slider_start,recorded_at,ip,user_agent,device,browser,browser_version,platform,platform_version,source_code_version
10,1,"[{""page_index"":0,""viewing_time"":1038267.7999999821},{""page_index"":1,""viewing_time"":59722.40000000596},{""page_index"":2,""viewing_time"":2978.199999988079}]",1100969.7999999821,instructions,0,1101048,0.0-0.0,"""","""","""","""",2021-08-10 18:33:17,8.9.81.197,"Mozilla/5.0 (Macintosh; Intel Mac OS X 10_15_7) AppleWebKit/537.36 (KHTML, like Gecko) Chrome/92.0.4515.107 Safari/537.36",Macintosh,Chrome,92.0.4515.107,OS X,10_15_7,c2ec3e1d97c081aeb487e375c8af45d6
10,1,"[{""page_index"":0,""viewing_time"":3645.699999988079}]",3646.199999988079,instructions,1,1104702,0.0-1.0,"""","""","""","""",2021-08-10 18:33:17,8.9.81.197,"Mozilla/5.0 (Macintosh; Intel Mac OS X 10_15_7) AppleWebKit/537.36 (KHTML, like Gecko) Chrome/92.0.4515.107 Safari/537.36",Macintosh,Chrome,92.0.4515.107,OS X,10_15_7,c2ec3e1d97c081aeb487e375c8af45d6
10,1,"""",288062.7000000179,survey-likert,2,1392791,0.0-2.0,"{""rp_name_relation"":2,""rp_name_abref"":0,""ap_to_rp"":0,""ap_lose"":6,""ap_name_relation"":6,""rp_lose"":2,""ap_id_interval"":1,""rp_id_440"":4,""ap_produce_interval"":3,""rp_remember_group"":3,""rp_to_ap"":0,""rp_produce_440"":3,""ap_produce_abref"":6,""ap_ref_tonal"":6,""rp_id_interval"":6,""rp_produce_interval"":6,""ap_remember_group"":4,""rp_ref_tonal"":6,""rp_produce_abref"":0,""ap_produce_440"":0,""ap_produce_tonality"":6,""ap_name_abref"":6,""ap_perceive_same"":1,""rp_produce_tonality"":6,""rp_perceive_same"":6,""ap_id_440"":0}","[5,9,21,27,19,12,17,7,18,11,13,8,25,2,3,4,14,26,0,10,23,16,24,20,1,15,6,22]","""","""",2021-08-10 18:33:17,8.9.81.197,"Mozilla/5.0 (Macintosh; Intel Mac OS X 10_15_7) AppleWebKit/537.36 (KHTML, like Gecko) Chrome/92.0.4515.107 Safari/537.36",Macintosh,Chrome,92.0.4515.107,OS X,10_15_7,c2ec3e1d97c081aeb487e375c8af45d6
10,1,"""",53812.5,survey-text,3,1446620,0.0-3.0,"{""Q0"":""Not applicable.""}","""","""","""",2021-08-10 18:33:17,8.9.81.197,"Mozilla/5.0 (Macintosh; Intel Mac OS X 10_15_7) AppleWebKit/537.36 (KHTML, like Gecko) Chrome/92.0.4515.107 Safari/537.36",Macintosh,Chrome,92.0.4515.107,OS X,10_15_7,c2ec3e1d97c081aeb487e375c8af45d6
10,1,"""",14436.200000017881,survey-text,4,1461063,0.0-4.0,"{""Q0"":""Not applicable.""}","""","""","""",2021-08-10 18:33:17,8.9.81.197,"Mozilla/5.0 (Macintosh; Intel Mac OS X 10_15_7) AppleWebKit/537.36 (KHTML, like Gecko) Chrome/92.0.4515.107 Safari/537.36",Macintosh,Chrome,92.0.4515.107,OS X,10_15_7,c2ec3e1d97c081aeb487e375c8af45d6
10,1,"[{""page_index"":0,""viewing_time"":1844.6000000238419}]",1845.5,instructions,5,1462912,0.0-5.0,"""","""","""","""",2021-08-10 18:33:17,8.9.81.197,"Mozilla/5.0 (Macintosh; Intel Mac OS X 10_15_7) AppleWebKit/537.36 (KHTML, like Gecko) Chrome/92.0.4515.107 Safari/537.36",Macintosh,Chrome,92.0.4515.107,OS X,10_15_7,c2ec3e1d97c081aeb487e375c8af45d6
10,1,"""",120474.79999998212,survey-likert,6,1583399,0.0-6.0,"{""rp_better_others"":6,""rp_override"":6,""re_people_al"":2,""rp_trained_ap"":4,""ap_override"":6,""ap_better_others"":6,""ap_trained_ap"":3,""rp_normal"":4,""ap_impaired"":5,""ap_tonedeaf"":0,""rp_tonedeaf"":4,""ap_normal"":2,""rp_impaired"":1,""ap_people_all"":0}","[6,2,0,3,9,13,10,5,8,11,4,12,1,7]","""","""",2021-08-10 18:33:17,8.9.81.197,"Mozilla/5.0 (Macintosh; Intel Mac OS X 10_15_7) AppleWebKit/537.36 (KHTML, like Gecko) Chrome/92.0.4515.107 Safari/537.36",Macintosh,Chrome,92.0.4515.107,OS X,10_15_7,c2ec3e1d97c081aeb487e375c8af45d6
10,1,"[{""page_index"":0,""viewing_time"":4751.5}]",4751.800000011921,instructions,7,1588158,0.0-7.0,"""","""","""","""",2021-08-10 18:33:17,8.9.81.197,"Mozilla/5.0 (Macintosh; Intel Mac OS X 10_15_7) AppleWebKit/537.36 (KHTML, like Gecko) Chrome/92.0.4515.107 Safari/537.36",Macintosh,Chrome,92.0.4515.107,OS X,10_15_7,c2ec3e1d97c081aeb487e375c8af45d6
10,1,"[{""page_index"":0,""viewing_time"":3958.300000011921}]",3958.5999999940395,instructions,8,1592118,0.0-8.0,"""","""","""","""",2021-08-10 18:33:17,8.9.81.197,"Mozilla/5.0 (Macintosh; Intel Mac OS X 10_15_7) AppleWebKit/537.36 (KHTML, like Gecko) Chrome/92.0.4515.107 Safari/537.36",Macintosh,Chrome,92.0.4515.107,OS X,10_15_7,c2ec3e1d97c081aeb487e375c8af45d6
10,1,"[{""page_index"":0,""viewing_time"":22495.69999998808}]",22496.09999999404,instructions,9,1614617,0.0-9.0,"""","""","""","""",2021-08-10 18:33:17,8.9.81.197,"Mozilla/5.0 (Macintosh; Intel Mac OS X 10_15_7) AppleWebKit/537.36 (KHTML, like Gecko) Chrome/92.0.4515.107 Safari/537.36",Macintosh,Chrome,92.0.4515.107,OS X,10_15_7,c2ec3e1d97c081aeb487e375c8af45d6
10,1,"""",31176,survey-text,10,1645798,0.0-10.0,"{""Q0"":""Sing on scale-degree numbers.""}","""","""","""",2021-08-10 18:33:17,8.9.81.197,"Mozilla/5.0 (Macintosh; Intel Mac OS X 10_15_7) AppleWebKit/537.36 (KHTML, like Gecko) Chrome/92.0.4515.107 Safari/537.36",Macintosh,Chrome,92.0.4515.107,OS X,10_15_7,c2ec3e1d97c081aeb487e375c8af45d6
10,1,"""",21750.90000000596,survey-likert,11,1667556,0.0-11.0,"{""rp_ac_rate"":6}","[0,1,2,3,4]","""","""",2021-08-10 18:33:17,8.9.81.197,"Mozilla/5.0 (Macintosh; Intel Mac OS X 10_15_7) AppleWebKit/537.36 (KHTML, like Gecko) Chrome/92.0.4515.107 Safari/537.36",Macintosh,Chrome,92.0.4515.107,OS X,10_15_7,c2ec3e1d97c081aeb487e375c8af45d6
10,1,"""",8455.59999999404,survey-text,12,1676024,0.0-12.0,"{""Q0"":""}","""","""","""",2021-08-10 18:33:17,8.9.81.197,"Mozilla/5.0 (Macintosh; Intel Mac OS X 10_15_7) AppleWebKit/537.36 (KHTML, like Gecko) Chrome/92.0.4515.107 Safari/537.36",Macintosh,Chrome,92.0.4515.107,OS X,10_15_7,c2ec3e1d97c081aeb487e375c8af45d6
10,1,"""",3252,survey-likert,13,1679282,0.0-13.0,"{""rp_ac_rate"":""}","[0,1,2,3,4]","""","""",2021-08-10 18:33:17,8.9.81.197,"Mozilla/5.0 (Macintosh; Intel Mac OS X 10_15_7) AppleWebKit/537.36 (KHTML, like Gecko) Chrome/92.0.4515.107 Safari/537.36",Macintosh,Chrome,92.0.4515.107,OS X,10_15_7,c2ec3e1d97c081aeb487e375c8af45d6
10,1,"""",11076.09999999404,survey-text,14,1690366,0.0-14.0,"{""Q0"":""Take dictation on scale-degree numbers.""}","""","""","""",2021-08-10 18:33:17,8.9.81.197,"Mozilla/5.0 (Macintosh; Intel Mac OS X 10_15_7) AppleWebKit/537.36 (KHTML, like Gecko) Chrome/92.0.4515.107 Safari/537.36",Macintosh,Chrome,92.0.4515.107,OS X,10_15_7,c2ec3e1d97c081aeb487e375c8af45d6
10,1,"""",12564.90000000596,survey-likert,15,1702938,0.0-15.0,"{""rp_ac_rate"":6}","[0,1,2,3,4]","""","""",2021-08-10 18:33:17,8.9.81.197,"Mozilla/5.0 (Macintosh; Intel Mac OS X 10_15_7) AppleWebKit/537.36 (KHTML, like Gecko) Chrome/92.0.4515.107 Safari/537.36",Macintosh,Chrome,92.0.4515.107,OS X,10_15_7,c2ec3e1d97c081aeb487e375c8af45d6
10,1,"""",1196.5,survey-text,16,1704145,0.0-16.0,"{""Q0"":""}","""","""","""",2021-08-10 18:33:17,8.9.81.197,"Mozilla/5.0 (Macintosh; Intel Mac OS X 10_15_7) AppleWebKit/537.36 (KHTML, like Gecko) Chrome/92.0.4515.107 Safari/537.36",Macintosh,Chrome,92.0.4515.107,OS X,10_15_7,c2ec3e1d97c081aeb487e375c8af45d6
10,1,"""",2498.0999999940395,survey-likert,17,1706650,0.0-17.0,"{""rp_ac_rate"":""}","[0,1,2,3,4]","""","""",2021-08-10 18:33:17,8.9.81.197,"Mozilla/5.0 (Macintosh; Intel Mac OS X 10_15_7) AppleWebKit/537.36 (KHTML, like Gecko) Chrome/92.0.4515.107 Safari/537.36",Macintosh,Chrome,92.0.4515.107,OS X,10_15_7,c2ec3e1d97c081aeb487e375c8af45d6
10,1,"""",3867.199999988079,survey-text,18,1710528,0.0-18.0,"{""Q0"":""}","""","""","""",2021-08-10 18:33:17,8.9.81.197,"Mozilla/5.0 (Macintosh; Intel Mac OS X 10_15_7) AppleWebKit/537.36 (KHTML, like Gecko) Chrome/92.0.4515.107 Safari/537.36",Macintosh,Chrome,92.0.4515.107,OS X,10_15_7,c2ec3e1d97c081aeb487e375c8af45d6
10,1,"""",3193.5,survey-likert,19,1713726,0.0-19.0,"{""rp_ac_rate"":""}","[0,1,2,3,4]","""","""",2021-08-10 18:33:17,8.9.81.197,"Mozilla/5.0 (Macintosh; Intel Mac OS X 10_15_7) AppleWebKit/537.36 (KHTML, like Gecko) Chrome/92.0.4515.107 Safari/537.36",Macintosh,Chrome,92.0.4515.107,OS X,10_15_7,c2ec3e1d97c081aeb487e375c8af45d6
10,1,"[{""page_index"":0,""viewing_time"":1969.6000000238419}]",1970.300000011921,instructions,20,1715705,0.0-20.0,"""","""","""","""",2021-08-10 18:33:17,8.9.81.197,"Mozilla/5.0 (Macintosh; Intel Mac OS X 10_15_7) AppleWebKit/537.36 (KHTML, like Gecko) Chrome/92.0.4515.107 Safari/537.36",Macintosh,Chrome,92.0.4515.107,OS X,10_15_7,c2ec3e1d97c081aeb487e375c8af45d6
10,1,"""",88913.40000000596,survey-text,21,1804625,0.0-21.0,"{""Q0"":""Sing A at the start of class.""}","""","""","""",2021-08-10 18:33:17,8.9.81.197,"Mozilla/5.0 (Macintosh; Intel Mac OS X 10_15_7) AppleWebKit/537.36 (KHTML, like Gecko) Chrome/92.0.4515.107 Safari/537.36",Macintosh,Chrome,92.0.4515.107,OS X,10_15_7,c2ec3e1d97c081aeb487e375c8af45d6
10,1,"""",48202.10000002384,survey-likert,22,1852836,0.0-22.0,"{""rp_ac_rate"":3}","[0,1,2,3,4]","""","""",2021-08-10 18:33:17,8.9.81.197,"Mozilla/5.0 (Macintosh; Intel Mac OS X 10_15_7) AppleWebKit/537.36 (KHTML, like Gecko) Chrome/92.0.4515.107 Safari/537.36",Macintosh,Chrome,92.0.4515.107,OS X,10_15_7,c2ec3e1d97c081aeb487e375c8af45d6
10,1,"""",17891.90000000596,survey-text,23,1870739,0.0-23.0,"{""Q0"":""Teaching C-clefs.""}","""","""","""",2021-08-10 18:33:17,8.9.81.197,"Mozilla/5.0 (Macintosh; Intel Mac OS X 10_15_7) AppleWebKit/537.36 (KHTML, like Gecko) Chrome/92.0.4515.107 Safari/537.36",Macintosh,Chrome,92.0.4515.107,OS X,10_15_7,c2ec3e1d97c081aeb487e375c8af45d6
10,1,"""",18750.80000001192,survey-likert,24,1889497,0.0-24.0,"{""rp_ac_rate"":4}","[0,1,2,3,4]","""","""",2021-08-10 18:33:17,8.9.81.197,"Mozilla/5.0 (Macintosh; Intel Mac OS X 10_15_7) AppleWebKit/537.36 (KHTML, like Gecko) Chrome/92.0.4515.107 Safari/537.36",Macintosh,Chrome,92.0.4515.107,OS X,10_15_7,c2ec3e1d97c081aeb487e375c8af45d6
10,1,"""",3653.199999988079,survey-text,25,1893161,0.0-25.0,"{""Q0"":""}","""","""","""",2021-08-10 18:33:17,8.9.81.197,"Mozilla/5.0 (Macintosh; Intel Mac OS X 10_15_7) AppleWebKit/537.36 (KHTML, like Gecko) Chrome/92.0.4515.107 Safari/537.36",Macintosh,Chrome,92.0.4515.107,OS X,10_15_7,c2ec3e1d97c081aeb487e375c8af45d6
10,1,"""",4786.5,survey-likert,26,1897955,0.0-26.0,"{""rp_ac_rate"":""}","[0,1,2,3,4]","""","""",2021-08-10 18:33:17,8.9.81.197,"Mozilla/5.0 (Macintosh; Intel Mac OS X 10_15_7) AppleWebKit/537.36 (KHTML, like Gecko) Chrome/92.0.4515.107 Safari/537.36",Macintosh,Chrome,92.0.4515.107,OS X,10_15_7,c2ec3e1d97c081aeb487e375c8af45d6
10,1,"""",2099.5,survey-text,27,1900063,0.0-27.0,"{""Q0"":""}","""","""","""",2021-08-10 18:33:17,8.9.81.197,"Mozilla/5.0 (Macintosh; Intel Mac OS X 10_15_7) AppleWebKit/537.36 (KHTML, like Gecko) Chrome/92.0.4515.107 Safari/537.36",Macintosh,Chrome,92.0.4515.107,OS X,10_15_7,c2ec3e1d97c081aeb487e375c8af45d6
10,1,"""",12107.59999999404,survey-likert,28,1912178,0.0-28.0,"{""rp_ac_rate"":""}","[0,1,2,3,4]","""","""",2021-08-10 18:33:17,8.9.81.197,"Mozilla/5.0 (Macintosh; Intel Mac OS X 10_15_7) AppleWebKit/537.36 (KHTML, like Gecko) Chrome/92.0.4515.107 Safari/537.36",Macintosh,Chrome,92.0.4515.107,OS X,10_15_7,c2ec3e1d97c081aeb487e375c8af45d6
10,1,"""",49398.70000001788,survey-text,29,1961588,0.0-29.0,"{""Q0"":""}","""","""","""",2021-08-10 18:33:17,8.9.81.197,"Mozilla/5.0 (Macintosh; Intel Mac OS X 10_15_7) AppleWebKit/537.36 (KHTML, like Gecko) Chrome/92.0.4515.107 Safari/537.36",Macintosh,Chrome,92.0.4515.107,OS X,10_15_7,c2ec3e1d97c081aeb487e375c8af45d6
10,1,"""",4490.4000000059605,survey-likert,30,1966088,0.0-30.0,"{""rp_ac_rate"":""}","[0,1,2,3,4]","""","""",2021-08-10 18:33:17,8.9.81.197,"Mozilla/5.0 (Macintosh; Intel Mac OS X 10_15_7) AppleWebKit/537.36 (KHTML, like Gecko) Chrome/92.0.4515.107 Safari/537.36",Macintosh,Chrome,92.0.4515.107,OS X,10_15_7,c2ec3e1d97c081aeb487e375c8af45d6
10,1,"""",143862.40000000596,survey-text,31,2109964,0.0-31.0,"{""Q0"":""}","""","""","""",2021-08-10 18:33:17,8.9.81.197,"Mozilla/5.0 (Macintosh; Intel Mac OS X 10_15_7) AppleWebKit/537.36 (KHTML, like Gecko) Chrome/92.0.4515.107 Safari/537.36",Macintosh,Chrome,92.0.4515.107,OS X,10_15_7,c2ec3e1d97c081aeb487e375c8af45d6
10,1,"""",15876.40000000596,html-slider-response,32,2125847,0.0-32.0,92,"""",<p></p>,50,2021-08-10 18:33:17,8.9.81.197,"Mozilla/5.0 (Macintosh; Intel Mac OS X 10_15_7) AppleWebKit/537.36 (KHTML, like Gecko) Chrome/92.0.4515.107 Safari/537.36",Macintosh,Chrome,92.0.4515.107,OS X,10_15_7,c2ec3e1d97c081aeb487e375c8af45d6
10,1,"""",7194.5999999940395,survey-text,33,2133046,0.0-33.0,"{""Q0"":""}","""","""","""",2021-08-10 18:33:17,8.9.81.197,"Mozilla/5.0 (Macintosh; Intel Mac OS X 10_15_7) AppleWebKit/537.36 (KHTML, like Gecko) Chrome/92.0.4515.107 Safari/537.36",Macintosh,Chrome,92.0.4515.107,OS X,10_15_7,c2ec3e1d97c081aeb487e375c8af45d6
10,1,"""",88643.40000000596,survey-text,34,2221698,0.0-34.0,"{""Q0"":""Singing and dictation on scale-degree numbers.""}","""","""","""",2021-08-10 18:33:17,8.9.81.197,"Mozilla/5.0 (Macintosh; Intel Mac OS X 10_15_7) AppleWebKit/537.36 (KHTML, like Gecko) Chrome/92.0.4515.107 Safari/537.36",Macintosh,Chrome,92.0.4515.107,OS X,10_15_7,c2ec3e1d97c081aeb487e375c8af45d6
10,1,"""",4430,html-slider-response,35,2226130,0.0-35.0,55,"""",<p></p>,50,2021-08-10 18:33:17,8.9.81.197,"Mozilla/5.0 (Macintosh; Intel Mac OS X 10_15_7) AppleWebKit/537.36 (KHTML, like Gecko) Chrome/92.0.4515.107 Safari/537.36",Macintosh,Chrome,92.0.4515.107,OS X,10_15_7,c2ec3e1d97c081aeb487e375c8af45d6
10,1,"[{""page_index"":0,""viewing_time"":8627.5}]",8628,instructions,36,2234763,0.0-36.0,"""","""","""","""",2021-08-10 18:33:17,8.9.81.197,"Mozilla/5.0 (Macintosh; Intel Mac OS X 10_15_7) AppleWebKit/537.36 (KHTML, like Gecko) Chrome/92.0.4515.107 Safari/537.36",Macintosh,Chrome,92.0.4515.107,OS X,10_15_7,c2ec3e1d97c081aeb487e375c8af45d6
10,1,"[{""page_index"":0,""viewing_time"":4536.299999982119}]",4536.699999988079,instructions,37,2239300,0.0-37.0,"""","""","""","""",2021-08-10 18:33:17,8.9.81.197,"Mozilla/5.0 (Macintosh; Intel Mac OS X 10_15_7) AppleWebKit/537.36 (KHTML, like Gecko) Chrome/92.0.4515.107 Safari/537.36",Macintosh,Chrome,92.0.4515.107,OS X,10_15_7,c2ec3e1d97c081aeb487e375c8af45d6
10,1,"""",41681,survey-multi-select,38,2280997,0.0-38.0,"{""Colors"":[""Music theory (Graduate, Written)"",""Music theory (Graduate , Aural)""]}",[0],"""","""",2021-08-10 18:33:17,8.9.81.197,"Mozilla/5.0 (Macintosh; Intel Mac OS X 10_15_7) AppleWebKit/537.36 (KHTML, like Gecko) Chrome/92.0.4515.107 Safari/537.36",Macintosh,Chrome,92.0.4515.107,OS X,10_15_7,c2ec3e1d97c081aeb487e375c8af45d6
10,1,"""",21360.09999999404,survey-text,39,2302370,0.0-39.0,"{""Q0"":""40""}","""","""","""",2021-08-10 18:33:17,8.9.81.197,"Mozilla/5.0 (Macintosh; Intel Mac OS X 10_15_7) AppleWebKit/537.36 (KHTML, like Gecko) Chrome/92.0.4515.107 Safari/537.36",Macintosh,Chrome,92.0.4515.107,OS X,10_15_7,c2ec3e1d97c081aeb487e375c8af45d6
10,1,"""",4938.4000000059605,survey-multi-select,40,2307321,0.0-40.0,"{""Colors"":[""Ph.D. in Music Theory""]}",[0],"""","""",2021-08-10 18:33:17,8.9.81.197,"Mozilla/5.0 (Macintosh; Intel Mac OS X 10_15_7) AppleWebKit/537.36 (KHTML, like Gecko) Chrome/92.0.4515.107 Safari/537.36",Macintosh,Chrome,92.0.4515.107,OS X,10_15_7,c2ec3e1d97c081aeb487e375c8af45d6
10,1,"""",31938.70000001788,survey-text,41,2339268,0.0-41.0,"{""Q0"":""32""}","""","""","""",2021-08-10 18:33:17,8.9.81.197,"Mozilla/5.0 (Macintosh; Intel Mac OS X 10_15_7) AppleWebKit/537.36 (KHTML, like Gecko) Chrome/92.0.4515.107 Safari/537.36",Macintosh,Chrome,92.0.4515.107,OS X,10_15_7,c2ec3e1d97c081aeb487e375c8af45d6
10,1,"""",10984.300000011921,survey-multi-select,42,2350257,0.0-42.0,"{""Colors"":[""Private institution"",""Conservatory-style professional music school (within a university)"",""NASM-accredited music program""]}",[0],"""","""",2021-08-10 18:33:17,8.9.81.197,"Mozilla/5.0 (Macintosh; Intel Mac OS X 10_15_7) AppleWebKit/537.36 (KHTML, like Gecko) Chrome/92.0.4515.107 Safari/537.36",Macintosh,Chrome,92.0.4515.107,OS X,10_15_7,c2ec3e1d97c081aeb487e375c8af45d6
10,1,"""",10674,survey-multi-select,43,2360944,0.0-43.0,"{""Colors"":[""Full-Time Tenured""]}",[0],"""","""",2021-08-10 18:33:17,8.9.81.197,"Mozilla/5.0 (Macintosh; Intel Mac OS X 10_15_7) AppleWebKit/537.36 (KHTML, like Gecko) Chrome/92.0.4515.107 Safari/537.36",Macintosh,Chrome,92.0.4515.107,OS X,10_15_7,c2ec3e1d97c081aeb487e375c8af45d6
10,1,"[{""page_index"":0,""viewing_time"":9081.40000000596}]",9081.90000000596,instructions,44,2370037,0.0-44.0,"""","""","""","""",2021-08-10 18:33:17,8.9.81.197,"Mozilla/5.0 (Macintosh; Intel Mac OS X 10_15_7) AppleWebKit/537.36 (KHTML, like Gecko) Chrome/92.0.4515.107 Safari/537.36",Macintosh,Chrome,92.0.4515.107,OS X,10_15_7,c2ec3e1d97c081aeb487e375c8af45d6
10,1,"""",9095.40000000596,survey-text,45,2379138,0.0-45.0,"{""Q0"":""18""}","""","""","""",2021-08-10 18:33:17,8.9.81.197,"Mozilla/5.0 (Macintosh; Intel Mac OS X 10_15_7) AppleWebKit/537.36 (KHTML, like Gecko) Chrome/92.0.4515.107 Safari/537.36",Macintosh,Chrome,92.0.4515.107,OS X,10_15_7,c2ec3e1d97c081aeb487e375c8af45d6
10,1,"""",45056.5,survey-multi-select,46,2424209,0.0-46.0,"{""Colors"":[""Moveable-Do (La-based minor)"",""Fixed Do without inflections""]}",[0],"""","""",2021-08-10 18:33:17,8.9.81.197,"Mozilla/5.0 (Macintosh; Intel Mac OS X 10_15_7) AppleWebKit/537.36 (KHTML, like Gecko) Chrome/92.0.4515.107 Safari/537.36",Macintosh,Chrome,92.0.4515.107,OS X,10_15_7,c2ec3e1d97c081aeb487e375c8af45d6
10,1,"""",15569.199999988079,survey-multi-select,47,2439796,0.0-47.0,"{""Colors"":[""Scale-degree numbers without inflections (e.g. An F# in the key of C is sung as Fa)""]}",[0],"""","""",2021-08-10 18:33:17,8.9.81.197,"Mozilla/5.0 (Macintosh; Intel Mac OS X 10_15_7) AppleWebKit/537.36 (KHTML, like Gecko) Chrome/92.0.4515.107 Safari/537.36",Macintosh,Chrome,92.0.4515.107,OS X,10_15_7,c2ec3e1d97c081aeb487e375c8af45d6
10,1,"""",13250.300000011921,survey-multi-select,48,2453060,0.0-48.0,"{""Colors"":[""Fixed Do without inflections""]}",[0],"""","""",2021-08-10 18:33:17,8.9.81.197,"Mozilla/5.0 (Macintosh; Intel Mac OS X 10_15_7) AppleWebKit/537.36 (KHTML, like Gecko) Chrome/92.0.4515.107 Safari/537.36",Macintosh,Chrome,92.0.4515.107,OS X,10_15_7,c2ec3e1d97c081aeb487e375c8af45d6
10,1,"""",9075.5,survey-multi-select,49,2462150,0.0-49.0,"{""Colors"":[""Scale-degree numbers without inflections""]}",[0],"""","""",2021-08-10 18:33:17,8.9.81.197,"Mozilla/5.0 (Macintosh; Intel Mac OS X 10_15_7) AppleWebKit/537.36 (KHTML, like Gecko) Chrome/92.0.4515.107 Safari/537.36",Macintosh,Chrome,92.0.4515.107,OS X,10_15_7,c2ec3e1d97c081aeb487e375c8af45d6
10,1,"""",21371.19999998808,survey-text,50,2483535,0.0-50.0,"{""Q0"":""10""}","""","""","""",2021-08-10 18:33:17,8.9.81.197,"Mozilla/5.0 (Macintosh; Intel Mac OS X 10_15_7) AppleWebKit/537.36 (KHTML, like Gecko) Chrome/92.0.4515.107 Safari/537.36",Macintosh,Chrome,92.0.4515.107,OS X,10_15_7,c2ec3e1d97c081aeb487e375c8af45d6
10,1,"""",13129.600000023842,survey-likert,51,2496668,0.0-51.0,"{""often"":2,""rp"":4}","[0,1]","""","""",2021-08-10 18:33:17,8.9.81.197,"Mozilla/5.0 (Macintosh; Intel Mac OS X 10_15_7) AppleWebKit/537.36 (KHTML, like Gecko) Chrome/92.0.4515.107 Safari/537.36",Macintosh,Chrome,92.0.4515.107,OS X,10_15_7,c2ec3e1d97c081aeb487e375c8af45d6
10,1,"""",7794.4000000059605,survey-likert,52,2504470,0.0-52.0,"{""often"":1,""rp"":4}","[0,1]","""","""",2021-08-10 18:33:17,8.9.81.197,"Mozilla/5.0 (Macintosh; Intel Mac OS X 10_15_7) AppleWebKit/537.36 (KHTML, like Gecko) Chrome/92.0.4515.107 Safari/537.36",Macintosh,Chrome,92.0.4515.107,OS X,10_15_7,c2ec3e1d97c081aeb487e375c8af45d6
10,1,"""",46929.70000001788,survey-multi-choice,53,2551417,0.0-53.0,"{""theory_track"":""Yes"",""pitch_mem"":""Yes"",""score_transp"":""Yes""}","[0,1,2]","""","""",2021-08-10 18:33:17,8.9.81.197,"Mozilla/5.0 (Macintosh; Intel Mac OS X 10_15_7) AppleWebKit/537.36 (KHTML, like Gecko) Chrome/92.0.4515.107 Safari/537.36",Macintosh,Chrome,92.0.4515.107,OS X,10_15_7,c2ec3e1d97c081aeb487e375c8af45d6
10,1,"""",76796.5,survey-multi-select,54,2628238,0.0-54.0,"{""Colors"":[""Private college or university"",""Conservatory-style professional music school (within a university)""]}",[0],"""","""",2021-08-10 18:33:17,8.9.81.197,"Mozilla/5.0 (Macintosh; Intel Mac OS X 10_15_7) AppleWebKit/537.36 (KHTML, like Gecko) Chrome/92.0.4515.107 Safari/537.36",Macintosh,Chrome,92.0.4515.107,OS X,10_15_7,c2ec3e1d97c081aeb487e375c8af45d6
10,1,"""",7682.5,survey-text,55,2635933,0.0-55.0,"{""Q0"":""900""}","""","""","""",2021-08-10 18:33:17,8.9.81.197,"Mozilla/5.0 (Macintosh; Intel Mac OS X 10_15_7) AppleWebKit/537.36 (KHTML, like Gecko) Chrome/92.0.4515.107 Safari/537.36",Macintosh,Chrome,92.0.4515.107,OS X,10_15_7,c2ec3e1d97c081aeb487e375c8af45d6
10,1,"""",17261.5,survey-multi-select,56,2653205,0.0-56.0,"{""Colors"":[""Certificate (e.g. Recording Arts, Songwriting)"",""AP Music Theory Classes"",""Bachelor of Music (BM)"",""Masters (MA)"",""Masters (MM)"",""Perfomer's Certificate/Graduate Performance Diploma"",""Doctorate (DMA or DM)"",""Doctorate (Ph.D.)""]}",[0],"""","""",2021-08-10 18:33:17,8.9.81.197,"Mozilla/5.0 (Macintosh; Intel Mac OS X 10_15_7) AppleWebKit/537.36 (KHTML, like Gecko) Chrome/92.0.4515.107 Safari/537.36",Macintosh,Chrome,92.0.4515.107,OS X,10_15_7,c2ec3e1d97c081aeb487e375c8af45d6
10,1,"""",11252.800000011921,survey-multi-select,57,2664472,0.0-57.0,"{""Colors"":[""Graduate student (teaching assistants)""]}",[0],"""","""",2021-08-10 18:33:17,8.9.81.197,"Mozilla/5.0 (Macintosh; Intel Mac OS X 10_15_7) AppleWebKit/537.36 (KHTML, like Gecko) Chrome/92.0.4515.107 Safari/537.36",Macintosh,Chrome,92.0.4515.107,OS X,10_15_7,c2ec3e1d97c081aeb487e375c8af45d6
10,1,"""",284377,survey-multi-select,58,2948873,0.0-58.0,"{""Colors"":[""Graduate degree in music theory or composition""]}",[0],"""","""",2021-08-10 18:33:17,8.9.81.197,"Mozilla/5.0 (Macintosh; Intel Mac OS X 10_15_7) AppleWebKit/537.36 (KHTML, like Gecko) Chrome/92.0.4515.107 Safari/537.36",Macintosh,Chrome,92.0.4515.107,OS X,10_15_7,c2ec3e1d97c081aeb487e375c8af45d6
10,1,"""",161069.90000000596,survey-text,59,3109960,0.0-59.0,"{""Q0"":""USA""}","""","""","""",2021-08-10 18:33:17,8.9.81.197,"Mozilla/5.0 (Macintosh; Intel Mac OS X 10_15_7) AppleWebKit/537.36 (KHTML, like Gecko) Chrome/92.0.4515.107 Safari/537.36",Macintosh,Chrome,92.0.4515.107,OS X,10_15_7,c2ec3e1d97c081aeb487e375c8af45d6
10,1,"""",3315.4000000059605,survey-text,60,3113282,0.0-60.0,"{""Q0"":""NY""}","""","""","""",2021-08-10 18:33:17,8.9.81.197,"Mozilla/5.0 (Macintosh; Intel Mac OS X 10_15_7) AppleWebKit/537.36 (KHTML, like Gecko) Chrome/92.0.4515.107 Safari/537.36",Macintosh,Chrome,92.0.4515.107,OS X,10_15_7,c2ec3e1d97c081aeb487e375c8af45d6
10,1,"""",8667.700000017881,survey-text,61,3121954,0.0-61.0,"{""Q0"":""No thanks, excellent work!""}","""","""","""",2021-08-10 18:33:17,8.9.81.197,"Mozilla/5.0 (Macintosh; Intel Mac OS X 10_15_7) AppleWebKit/537.36 (KHTML, like Gecko) Chrome/92.0.4515.107 Safari/537.36",Macintosh,Chrome,92.0.4515.107,OS X,10_15_7,c2ec3e1d97c081aeb487e375c8af45d6
10,1,"[{""page_index"":0,""viewing_time"":7229.699999988079}]",7230.0999999940395,instructions,62,3129187,0.0-62.0,"""","""","""","""",2021-08-10 18:33:17,8.9.81.197,"Mozilla/5.0 (Macintosh; Intel Mac OS X 10_15_7) AppleWebKit/537.36 (KHTML, like Gecko) Chrome/92.0.4515.107 Safari/537.36",Macintosh,Chrome,92.0.4515.107,OS X,10_15_7,c2ec3e1d97c081aeb487e375c8af45d6
11,1,"[{""page_index"":0,""viewing_time"":2918},{""page_index"":1,""viewing_time"":728},{""page_index"":2,""viewing_time"":1351}]",4997,instructions,0,5008,0.0-0.0,"""","""","""","""",2021-11-09 15:52:12,73.173.53.236,Mozilla/5.0 (Macintosh; Intel Mac OS X 10.15; rv:94.0) Gecko/20100101 Firefox/94.0,Macintosh,Firefox,94.0,OS X,10.15,8f8fbc6ef03fcbbd2622e55cc1f13f7b
11,1,"[{""page_index"":0,""viewing_time"":1153}]",1153,instructions,1,6165,0.0-1.0,"""","""","""","""",2021-11-09 15:52:12,73.173.53.236,Mozilla/5.0 (Macintosh; Intel Mac OS X 10.15; rv:94.0) Gecko/20100101 Firefox/94.0,Macintosh,Firefox,94.0,OS X,10.15,8f8fbc6ef03fcbbd2622e55cc1f13f7b
11,1,"""",7975977,survey-likert,2,7982528,0.0-2.0,"{""ap_ref_tonal"":7,""ap_produce_440"":7,""rp_perceive_same"":7,""ap_id_440"":7,""rp_lose"":7,""rp_id_440"":7,""rp_produce_tonality"":7,""rp_produce_abref"":7,""rp_name_relation"":7,""ap_to_rp"":7,""ap_id_interval"":7,""rp_produce_440"":7,""rp_id_interval"":7,""ap_perceive_same"":7,""rp_name_abref"":7,""ap_lose"":7,""ap_produce_interval"":7,""ap_remember_group"":7,""ap_produce_abref"":7,""ap_name_relation"":7,""ap_name_abref"":7,""rp_ref_tonal"":7,""rp_to_ap"":7,""rp_produce_interval"":7,""rp_remember_group"":7,""ap_produce_tonality"":7}","[14,23,6,22,12,7,1,10,5,21,2,17,8,3,20,15,9,27,18,26,25,19,24,0,13,4,11,16]","""","""",2021-11-09 15:52:12,73.173.53.236,Mozilla/5.0 (Macintosh; Intel Mac OS X 10.15; rv:94.0) Gecko/20100101 Firefox/94.0,Macintosh,Firefox,94.0,OS X,10.15,8f8fbc6ef03fcbbd2622e55cc1f13f7b
11,1,"""",14325,survey-text,3,7996866,0.0-3.0,"{""Q0"":""lkj""}","""","""","""",2021-11-09 15:52:12,73.173.53.236,Mozilla/5.0 (Macintosh; Intel Mac OS X 10.15; rv:94.0) Gecko/20100101 Firefox/94.0,Macintosh,Firefox,94.0,OS X,10.15,8f8fbc6ef03fcbbd2622e55cc1f13f7b
11,1,"""",4480,survey-text,4,8001352,0.0-4.0,"{""Q0"":""khj""}","""","""","""",2021-11-09 15:52:12,73.173.53.236,Mozilla/5.0 (Macintosh; Intel Mac OS X 10.15; rv:94.0) Gecko/20100101 Firefox/94.0,Macintosh,Firefox,94.0,OS X,10.15,8f8fbc6ef03fcbbd2622e55cc1f13f7b
11,1,"[{""page_index"":0,""viewing_time"":1684}]",1685,instructions,5,8003042,0.0-5.0,"""","""","""","""",2021-11-09 15:52:12,73.173.53.236,Mozilla/5.0 (Macintosh; Intel Mac OS X 10.15; rv:94.0) Gecko/20100101 Firefox/94.0,Macintosh,Firefox,94.0,OS X,10.15,8f8fbc6ef03fcbbd2622e55cc1f13f7b
11,1,"""",21452,survey-likert,6,8024501,0.0-6.0,"{""rp_impaired"":7,""rp_trained_ap"":7,""rp_normal"":7,""ap_better_others"":7,""re_people_al"":7,""ap_tonedeaf"":7,""ap_people_all"":7,""ap_trained_ap"":7,""ap_impaired"":7,""ap_override"":7,""rp_better_others"":7,""ap_normal"":7,""rp_override"":7,""rp_tonedeaf"":7}","[1,3,5,13,0,11,7,10,8,9,6,12,2,4]","""","""",2021-11-09 15:52:12,73.173.53.236,Mozilla/5.0 (Macintosh; Intel Mac OS X 10.15; rv:94.0) Gecko/20100101 Firefox/94.0,Macintosh,Firefox,94.0,OS X,10.15,8f8fbc6ef03fcbbd2622e55cc1f13f7b
11,1,"[{""page_index"":0,""viewing_time"":1922}]",1922,instructions,7,8026424,0.0-7.0,"""","""","""","""",2021-11-09 15:52:12,73.173.53.236,Mozilla/5.0 (Macintosh; Intel Mac OS X 10.15; rv:94.0) Gecko/20100101 Firefox/94.0,Macintosh,Firefox,94.0,OS X,10.15,8f8fbc6ef03fcbbd2622e55cc1f13f7b
11,1,"[{""page_index"":0,""viewing_time"":1237}]",1237,instructions,8,8027663,0.0-8.0,"""","""","""","""",2021-11-09 15:52:12,73.173.53.236,Mozilla/5.0 (Macintosh; Intel Mac OS X 10.15; rv:94.0) Gecko/20100101 Firefox/94.0,Macintosh,Firefox,94.0,OS X,10.15,8f8fbc6ef03fcbbd2622e55cc1f13f7b
11,1,"[{""page_index"":0,""viewing_time"":9403}]",9403,instructions,9,8037069,0.0-9.0,"""","""","""","""",2021-11-09 15:52:12,73.173.53.236,Mozilla/5.0 (Macintosh; Intel Mac OS X 10.15; rv:94.0) Gecko/20100101 Firefox/94.0,Macintosh,Firefox,94.0,OS X,10.15,8f8fbc6ef03fcbbd2622e55cc1f13f7b
11,1,"""",6207,survey-likert,10,8043281,0.0-10.0,"{""rp_ac_rate"":""}",[0],"""","""",2021-11-09 15:52:12,73.173.53.236,Mozilla/5.0 (Macintosh; Intel Mac OS X 10.15; rv:94.0) Gecko/20100101 Firefox/94.0,Macintosh,Firefox,94.0,OS X,10.15,8f8fbc6ef03fcbbd2622e55cc1f13f7b
11,1,"""",64176,html-slider-response,11,8107488,0.0-11.0,63,"""",<p></p>,50,2021-11-09 15:52:12,73.173.53.236,Mozilla/5.0 (Macintosh; Intel Mac OS X 10.15; rv:94.0) Gecko/20100101 Firefox/94.0,Macintosh,Firefox,94.0,OS X,10.15,8f8fbc6ef03fcbbd2622e55cc1f13f7b
11,1,"""",4247,survey-likert,12,8111740,0.0-12.0,"{""rp_ac_rate"":7}",[0],"""","""",2021-11-09 15:52:12,73.173.53.236,Mozilla/5.0 (Macintosh; Intel Mac OS X 10.15; rv:94.0) Gecko/20100101 Firefox/94.0,Macintosh,Firefox,94.0,OS X,10.15,8f8fbc6ef03fcbbd2622e55cc1f13f7b
11,1,"""",15693,html-slider-response,13,8127437,0.0-13.0,31,"""",<p></p>,50,2021-11-09 15:52:12,73.173.53.236,Mozilla/5.0 (Macintosh; Intel Mac OS X 10.15; rv:94.0) Gecko/20100101 Firefox/94.0,Macintosh,Firefox,94.0,OS X,10.15,8f8fbc6ef03fcbbd2622e55cc1f13f7b
11,1,"""",14337,survey-likert,14,8141780,0.0-14.0,"{""often"":5,""rp"":5}","[0,1,2,3]","""","""",2021-11-09 15:52:12,73.173.53.236,Mozilla/5.0 (Macintosh; Intel Mac OS X 10.15; rv:94.0) Gecko/20100101 Firefox/94.0,Macintosh,Firefox,94.0,OS X,10.15,8f8fbc6ef03fcbbd2622e55cc1f13f7b
11,1,"""",5859,survey-text,15,8147643,0.0-15.0,"{""Q0"":""}","""","""","""",2021-11-09 15:52:12,73.173.53.236,Mozilla/5.0 (Macintosh; Intel Mac OS X 10.15; rv:94.0) Gecko/20100101 Firefox/94.0,Macintosh,Firefox,94.0,OS X,10.15,8f8fbc6ef03fcbbd2622e55cc1f13f7b
11,1,"""",10610,survey-likert,16,8158257,0.0-16.0,"{""rp_ac_rate"":8}","[0,1,2,3,4]","""","""",2021-11-09 15:52:12,73.173.53.236,Mozilla/5.0 (Macintosh; Intel Mac OS X 10.15; rv:94.0) Gecko/20100101 Firefox/94.0,Macintosh,Firefox,94.0,OS X,10.15,8f8fbc6ef03fcbbd2622e55cc1f13f7b
11,1,"""",1764,survey-text,17,8160029,0.0-17.0,"{""Q0"":""}","""","""","""",2021-11-09 15:52:12,73.173.53.236,Mozilla/5.0 (Macintosh; Intel Mac OS X 10.15; rv:94.0) Gecko/20100101 Firefox/94.0,Macintosh,Firefox,94.0,OS X,10.15,8f8fbc6ef03fcbbd2622e55cc1f13f7b
11,1,"""",1286,survey-likert,18,8161317,0.0-18.0,"{""rp_ac_rate"":""}","[0,1,2,3,4]","""","""",2021-11-09 15:52:12,73.173.53.236,Mozilla/5.0 (Macintosh; Intel Mac OS X 10.15; rv:94.0) Gecko/20100101 Firefox/94.0,Macintosh,Firefox,94.0,OS X,10.15,8f8fbc6ef03fcbbd2622e55cc1f13f7b
11,1,"""",1379,survey-text,19,8162700,0.0-19.0,"{""Q0"":""}","""","""","""",2021-11-09 15:52:12,73.173.53.236,Mozilla/5.0 (Macintosh; Intel Mac OS X 10.15; rv:94.0) Gecko/20100101 Firefox/94.0,Macintosh,Firefox,94.0,OS X,10.15,8f8fbc6ef03fcbbd2622e55cc1f13f7b
11,1,"""",1476,survey-likert,20,8164179,0.0-20.0,"{""rp_ac_rate"":""}","[0,1,2,3,4]","""","""",2021-11-09 15:52:12,73.173.53.236,Mozilla/5.0 (Macintosh; Intel Mac OS X 10.15; rv:94.0) Gecko/20100101 Firefox/94.0,Macintosh,Firefox,94.0,OS X,10.15,8f8fbc6ef03fcbbd2622e55cc1f13f7b
11,1,"""",1289,survey-text,21,8165473,0.0-21.0,"{""Q0"":""}","""","""","""",2021-11-09 15:52:12,73.173.53.236,Mozilla/5.0 (Macintosh; Intel Mac OS X 10.15; rv:94.0) Gecko/20100101 Firefox/94.0,Macintosh,Firefox,94.0,OS X,10.15,8f8fbc6ef03fcbbd2622e55cc1f13f7b
11,1,"""",1503,survey-likert,22,8166980,0.0-22.0,"{""rp_ac_rate"":""}","[0,1,2,3,4]","""","""",2021-11-09 15:52:12,73.173.53.236,Mozilla/5.0 (Macintosh; Intel Mac OS X 10.15; rv:94.0) Gecko/20100101 Firefox/94.0,Macintosh,Firefox,94.0,OS X,10.15,8f8fbc6ef03fcbbd2622e55cc1f13f7b
11,1,"""",1048,survey-text,23,8168035,0.0-23.0,"{""Q0"":""}","""","""","""",2021-11-09 15:52:12,73.173.53.236,Mozilla/5.0 (Macintosh; Intel Mac OS X 10.15; rv:94.0) Gecko/20100101 Firefox/94.0,Macintosh,Firefox,94.0,OS X,10.15,8f8fbc6ef03fcbbd2622e55cc1f13f7b
11,1,"""",1098,survey-likert,24,8169136,0.0-24.0,"{""rp_ac_rate"":""}","[0,1,2,3,4]","""","""",2021-11-09 15:52:12,73.173.53.236,Mozilla/5.0 (Macintosh; Intel Mac OS X 10.15; rv:94.0) Gecko/20100101 Firefox/94.0,Macintosh,Firefox,94.0,OS X,10.15,8f8fbc6ef03fcbbd2622e55cc1f13f7b
11,1,"[{""page_index"":0,""viewing_time"":1413}]",1414,instructions,25,8170551,0.0-25.0,"""","""","""","""",2021-11-09 15:52:12,73.173.53.236,Mozilla/5.0 (Macintosh; Intel Mac OS X 10.15; rv:94.0) Gecko/20100101 Firefox/94.0,Macintosh,Firefox,94.0,OS X,10.15,8f8fbc6ef03fcbbd2622e55cc1f13f7b
11,1,"""",6794,survey-text,26,8177351,0.0-26.0,"{""Q0"":""}","""","""","""",2021-11-09 15:52:12,73.173.53.236,Mozilla/5.0 (Macintosh; Intel Mac OS X 10.15; rv:94.0) Gecko/20100101 Firefox/94.0,Macintosh,Firefox,94.0,OS X,10.15,8f8fbc6ef03fcbbd2622e55cc1f13f7b
11,1,"""",58521,survey-likert,27,8235879,0.0-27.0,"{""rp_ac_rate"":8}","[0,1,2,3,4]","""","""",2021-11-09 15:52:12,73.173.53.236,Mozilla/5.0 (Macintosh; Intel Mac OS X 10.15; rv:94.0) Gecko/20100101 Firefox/94.0,Macintosh,Firefox,94.0,OS X,10.15,8f8fbc6ef03fcbbd2622e55cc1f13f7b
11,1,"""",4125,survey-text,28,8240009,0.0-28.0,"{""Q0"":""}","""","""","""",2021-11-09 15:52:12,73.173.53.236,Mozilla/5.0 (Macintosh; Intel Mac OS X 10.15; rv:94.0) Gecko/20100101 Firefox/94.0,Macintosh,Firefox,94.0,OS X,10.15,8f8fbc6ef03fcbbd2622e55cc1f13f7b
11,1,"""",1264,survey-likert,29,8241277,0.0-29.0,"{""rp_ac_rate"":""}","[0,1,2,3,4]","""","""",2021-11-09 15:52:12,73.173.53.236,Mozilla/5.0 (Macintosh; Intel Mac OS X 10.15; rv:94.0) Gecko/20100101 Firefox/94.0,Macintosh,Firefox,94.0,OS X,10.15,8f8fbc6ef03fcbbd2622e55cc1f13f7b
11,1,"""",1167,survey-text,30,8242449,0.0-30.0,"{""Q0"":""}","""","""","""",2021-11-09 15:52:12,73.173.53.236,Mozilla/5.0 (Macintosh; Intel Mac OS X 10.15; rv:94.0) Gecko/20100101 Firefox/94.0,Macintosh,Firefox,94.0,OS X,10.15,8f8fbc6ef03fcbbd2622e55cc1f13f7b
11,1,"""",1569,survey-likert,31,8244021,0.0-31.0,"{""rp_ac_rate"":""}","[0,1,2,3,4]","""","""",2021-11-09 15:52:12,73.173.53.236,Mozilla/5.0 (Macintosh; Intel Mac OS X 10.15; rv:94.0) Gecko/20100101 Firefox/94.0,Macintosh,Firefox,94.0,OS X,10.15,8f8fbc6ef03fcbbd2622e55cc1f13f7b
11,1,"""",1721,survey-text,32,8245748,0.0-32.0,"{""Q0"":""}","""","""","""",2021-11-09 15:52:12,73.173.53.236,Mozilla/5.0 (Macintosh; Intel Mac OS X 10.15; rv:94.0) Gecko/20100101 Firefox/94.0,Macintosh,Firefox,94.0,OS X,10.15,8f8fbc6ef03fcbbd2622e55cc1f13f7b
11,1,"""",1439,survey-likert,33,8247190,0.0-33.0,"{""rp_ac_rate"":""}","[0,1,2,3,4]","""","""",2021-11-09 15:52:12,73.173.53.236,Mozilla/5.0 (Macintosh; Intel Mac OS X 10.15; rv:94.0) Gecko/20100101 Firefox/94.0,Macintosh,Firefox,94.0,OS X,10.15,8f8fbc6ef03fcbbd2622e55cc1f13f7b
11,1,"""",1816,survey-text,34,8249010,0.0-34.0,"{""Q0"":""}","""","""","""",2021-11-09 15:52:12,73.173.53.236,Mozilla/5.0 (Macintosh; Intel Mac OS X 10.15; rv:94.0) Gecko/20100101 Firefox/94.0,Macintosh,Firefox,94.0,OS X,10.15,8f8fbc6ef03fcbbd2622e55cc1f13f7b
11,1,"""",1411,survey-likert,35,8250423,0.0-35.0,"{""rp_ac_rate"":""}","[0,1,2,3,4]","""","""",2021-11-09 15:52:12,73.173.53.236,Mozilla/5.0 (Macintosh; Intel Mac OS X 10.15; rv:94.0) Gecko/20100101 Firefox/94.0,Macintosh,Firefox,94.0,OS X,10.15,8f8fbc6ef03fcbbd2622e55cc1f13f7b
11,1,"""",57685,survey-text,36,8308114,0.0-36.0,"{""Q0"":""}","""","""","""",2021-11-09 15:52:12,73.173.53.236,Mozilla/5.0 (Macintosh; Intel Mac OS X 10.15; rv:94.0) Gecko/20100101 Firefox/94.0,Macintosh,Firefox,94.0,OS X,10.15,8f8fbc6ef03fcbbd2622e55cc1f13f7b
11,1,"""",46309,html-slider-response,37,8354429,0.0-37.0,81,"""",<p></p>,50,2021-11-09 15:52:12,73.173.53.236,Mozilla/5.0 (Macintosh; Intel Mac OS X 10.15; rv:94.0) Gecko/20100101 Firefox/94.0,Macintosh,Firefox,94.0,OS X,10.15,8f8fbc6ef03fcbbd2622e55cc1f13f7b
11,1,"""",13842,survey-text,38,8368276,0.0-38.0,"{""Q0"":""sdf""}","""","""","""",2021-11-09 15:52:12,73.173.53.236,Mozilla/5.0 (Macintosh; Intel Mac OS X 10.15; rv:94.0) Gecko/20100101 Firefox/94.0,Macintosh,Firefox,94.0,OS X,10.15,8f8fbc6ef03fcbbd2622e55cc1f13f7b
11,1,"""",34517,survey-text,39,8402799,0.0-39.0,"{""Q0"":""}","""","""","""",2021-11-09 15:52:12,73.173.53.236,Mozilla/5.0 (Macintosh; Intel Mac OS X 10.15; rv:94.0) Gecko/20100101 Firefox/94.0,Macintosh,Firefox,94.0,OS X,10.15,8f8fbc6ef03fcbbd2622e55cc1f13f7b
11,1,"""",93187,html-slider-response,40,8495991,0.0-40.0,77,"""",<p></p>,50,2021-11-09 15:52:12,73.173.53.236,Mozilla/5.0 (Macintosh; Intel Mac OS X 10.15; rv:94.0) Gecko/20100101 Firefox/94.0,Macintosh,Firefox,94.0,OS X,10.15,8f8fbc6ef03fcbbd2622e55cc1f13f7b
11,1,"[{""page_index"":0,""viewing_time"":1981}]",1981,instructions,41,8497974,0.0-41.0,"""","""","""","""",2021-11-09 15:52:12,73.173.53.236,Mozilla/5.0 (Macintosh; Intel Mac OS X 10.15; rv:94.0) Gecko/20100101 Firefox/94.0,Macintosh,Firefox,94.0,OS X,10.15,8f8fbc6ef03fcbbd2622e55cc1f13f7b
11,1,"[{""page_index"":0,""viewing_time"":1346}]",1346,instructions,42,8499321,0.0-42.0,"""","""","""","""",2021-11-09 15:52:12,73.173.53.236,Mozilla/5.0 (Macintosh; Intel Mac OS X 10.15; rv:94.0) Gecko/20100101 Firefox/94.0,Macintosh,Firefox,94.0,OS X,10.15,8f8fbc6ef03fcbbd2622e55cc1f13f7b
11,1,"""",12288,survey-multi-select,43,8511622,0.0-43.0,"{""Colors"":[""I do not currently teach"",""No Response""]}",[0],"""","""",2021-11-09 15:52:12,73.173.53.236,Mozilla/5.0 (Macintosh; Intel Mac OS X 10.15; rv:94.0) Gecko/20100101 Firefox/94.0,Macintosh,Firefox,94.0,OS X,10.15,8f8fbc6ef03fcbbd2622e55cc1f13f7b
11,1,"""",3268,survey-text,44,8514897,0.0-44.0,"{""Q0"":""d""}","""","""","""",2021-11-09 15:52:12,73.173.53.236,Mozilla/5.0 (Macintosh; Intel Mac OS X 10.15; rv:94.0) Gecko/20100101 Firefox/94.0,Macintosh,Firefox,94.0,OS X,10.15,8f8fbc6ef03fcbbd2622e55cc1f13f7b
11,1,"""",9147,survey-multi-select,45,8524048,0.0-45.0,"{""Colors"":[""DMA in Theory/Composition"",""Ph.D. in Composition"",""No Response""]}",[0],"""","""",2021-11-09 15:52:12,73.173.53.236,Mozilla/5.0 (Macintosh; Intel Mac OS X 10.15; rv:94.0) Gecko/20100101 Firefox/94.0,Macintosh,Firefox,94.0,OS X,10.15,8f8fbc6ef03fcbbd2622e55cc1f13f7b
11,1,"""",1452,survey-text,46,8525504,0.0-46.0,"{""Q0"":""}","""","""","""",2021-11-09 15:52:12,73.173.53.236,Mozilla/5.0 (Macintosh; Intel Mac OS X 10.15; rv:94.0) Gecko/20100101 Firefox/94.0,Macintosh,Firefox,94.0,OS X,10.15,8f8fbc6ef03fcbbd2622e55cc1f13f7b
11,1,"""",4798,survey-multi-select,47,8530306,0.0-47.0,"{""Colors"":[""NASM-accredited music program""]}",[0],"""","""",2021-11-09 15:52:12,73.173.53.236,Mozilla/5.0 (Macintosh; Intel Mac OS X 10.15; rv:94.0) Gecko/20100101 Firefox/94.0,Macintosh,Firefox,94.0,OS X,10.15,8f8fbc6ef03fcbbd2622e55cc1f13f7b
11,1,"""",3543,survey-multi-select,48,8533855,0.0-48.0,"{""Colors"":[""I am not currently employed as a teacher""]}",[0],"""","""",2021-11-09 15:52:12,73.173.53.236,Mozilla/5.0 (Macintosh; Intel Mac OS X 10.15; rv:94.0) Gecko/20100101 Firefox/94.0,Macintosh,Firefox,94.0,OS X,10.15,8f8fbc6ef03fcbbd2622e55cc1f13f7b
11,1,"[{""page_index"":0,""viewing_time"":1203}]",1204,instructions,49,8535059,0.0-49.0,"""","""","""","""",2021-11-09 15:52:12,73.173.53.236,Mozilla/5.0 (Macintosh; Intel Mac OS X 10.15; rv:94.0) Gecko/20100101 Firefox/94.0,Macintosh,Firefox,94.0,OS X,10.15,8f8fbc6ef03fcbbd2622e55cc1f13f7b
11,1,"""",3294,survey-text,50,8538356,0.0-50.0,"{""Q0"":""d""}","""","""","""",2021-11-09 15:52:12,73.173.53.236,Mozilla/5.0 (Macintosh; Intel Mac OS X 10.15; rv:94.0) Gecko/20100101 Firefox/94.0,Macintosh,Firefox,94.0,OS X,10.15,8f8fbc6ef03fcbbd2622e55cc1f13f7b
11,1,"""",3060,survey-multi-select,51,8541424,0.0-51.0,"{""Colors"":[""German letter names""]}",[0],"""","""",2021-11-09 15:52:12,73.173.53.236,Mozilla/5.0 (Macintosh; Intel Mac OS X 10.15; rv:94.0) Gecko/20100101 Firefox/94.0,Macintosh,Firefox,94.0,OS X,10.15,8f8fbc6ef03fcbbd2622e55cc1f13f7b
11,1,"""",5218,survey-multi-select,52,8546646,0.0-52.0,"{""Colors"":[""Fixed Do without inflections""]}",[0],"""","""",2021-11-09 15:52:12,73.173.53.236,Mozilla/5.0 (Macintosh; Intel Mac OS X 10.15; rv:94.0) Gecko/20100101 Firefox/94.0,Macintosh,Firefox,94.0,OS X,10.15,8f8fbc6ef03fcbbd2622e55cc1f13f7b
11,1,"""",4106,survey-multi-select,53,8550758,0.0-53.0,"{""Colors"":[""Letter names""]}",[0],"""","""",2021-11-09 15:52:12,73.173.53.236,Mozilla/5.0 (Macintosh; Intel Mac OS X 10.15; rv:94.0) Gecko/20100101 Firefox/94.0,Macintosh,Firefox,94.0,OS X,10.15,8f8fbc6ef03fcbbd2622e55cc1f13f7b
11,1,"""",3964,survey-multi-select,54,8554726,0.0-54.0,"{""Colors"":[""German letter names""]}",[0],"""","""",2021-11-09 15:52:12,73.173.53.236,Mozilla/5.0 (Macintosh; Intel Mac OS X 10.15; rv:94.0) Gecko/20100101 Firefox/94.0,Macintosh,Firefox,94.0,OS X,10.15,8f8fbc6ef03fcbbd2622e55cc1f13f7b
11,1,"""",4033,survey-text,55,8558764,0.0-55.0,"{""Q0"":""d""}","""","""","""",2021-11-09 15:52:12,73.173.53.236,Mozilla/5.0 (Macintosh; Intel Mac OS X 10.15; rv:94.0) Gecko/20100101 Firefox/94.0,Macintosh,Firefox,94.0,OS X,10.15,8f8fbc6ef03fcbbd2622e55cc1f13f7b
11,1,"""",8535,survey-multi-choice,56,8567301,0.0-56.0,"{""theory_track"":""NR"",""pitch_mem"":""NR"",""score_transp"":""NR""}","[0,1,2]","""","""",2021-11-09 15:52:12,73.173.53.236,Mozilla/5.0 (Macintosh; Intel Mac OS X 10.15; rv:94.0) Gecko/20100101 Firefox/94.0,Macintosh,Firefox,94.0,OS X,10.15,8f8fbc6ef03fcbbd2622e55cc1f13f7b
11,1,"""",3070,survey-multi-select,57,8570378,0.0-57.0,"{""Colors"":[""I do not currently teach""]}",[0],"""","""",2021-11-09 15:52:12,73.173.53.236,Mozilla/5.0 (Macintosh; Intel Mac OS X 10.15; rv:94.0) Gecko/20100101 Firefox/94.0,Macintosh,Firefox,94.0,OS X,10.15,8f8fbc6ef03fcbbd2622e55cc1f13f7b
11,1,"""",1176,survey-text,58,8571559,0.0-58.0,"{""Q0"":""}","""","""","""",2021-11-09 15:52:12,73.173.53.236,Mozilla/5.0 (Macintosh; Intel Mac OS X 10.15; rv:94.0) Gecko/20100101 Firefox/94.0,Macintosh,Firefox,94.0,OS X,10.15,8f8fbc6ef03fcbbd2622e55cc1f13f7b
11,1,"""",9050,survey-multi-select,59,8580613,0.0-59.0,"{""Colors"":[""Doctorate (Ph.D.)""]}",[0],"""","""",2021-11-09 15:52:12,73.173.53.236,Mozilla/5.0 (Macintosh; Intel Mac OS X 10.15; rv:94.0) Gecko/20100101 Firefox/94.0,Macintosh,Firefox,94.0,OS X,10.15,8f8fbc6ef03fcbbd2622e55cc1f13f7b
11,1,"""",5604,survey-multi-select,60,8586223,0.0-60.0,"{""Colors"":[""Full-time tenure eligible"",""Full-time tenured""]}",[0],"""","""",2021-11-09 15:52:12,73.173.53.236,Mozilla/5.0 (Macintosh; Intel Mac OS X 10.15; rv:94.0) Gecko/20100101 Firefox/94.0,Macintosh,Firefox,94.0,OS X,10.15,8f8fbc6ef03fcbbd2622e55cc1f13f7b
11,1,"""",12033,survey-multi-select,61,8598259,0.0-61.0,"{""Colors"":[""Graduate degree in music theory or composition"",""Graduate degree in music education""]}",[0],"""","""",2021-11-09 15:52:12,73.173.53.236,Mozilla/5.0 (Macintosh; Intel Mac OS X 10.15; rv:94.0) Gecko/20100101 Firefox/94.0,Macintosh,Firefox,94.0,OS X,10.15,8f8fbc6ef03fcbbd2622e55cc1f13f7b
11,1,"""",3206,survey-text,62,8601470,0.0-62.0,"{""Q0"":""d""}","""","""","""",2021-11-09 15:52:12,73.173.53.236,Mozilla/5.0 (Macintosh; Intel Mac OS X 10.15; rv:94.0) Gecko/20100101 Firefox/94.0,Macintosh,Firefox,94.0,OS X,10.15,8f8fbc6ef03fcbbd2622e55cc1f13f7b
11,1,"""",2406,survey-text,63,8603882,0.0-63.0,"{""Q0"":""}","""","""","""",2021-11-09 15:52:12,73.173.53.236,Mozilla/5.0 (Macintosh; Intel Mac OS X 10.15; rv:94.0) Gecko/20100101 Firefox/94.0,Macintosh,Firefox,94.0,OS X,10.15,8f8fbc6ef03fcbbd2622e55cc1f13f7b
11,1,"""",110892,survey-text,64,8714783,0.0-64.0,"{""Q0"":""}","""","""","""",2021-11-09 15:52:12,73.173.53.236,Mozilla/5.0 (Macintosh; Intel Mac OS X 10.15; rv:94.0) Gecko/20100101 Firefox/94.0,Macintosh,Firefox,94.0,OS X,10.15,8f8fbc6ef03fcbbd2622e55cc1f13f7b
11,1,"[{""page_index"":0,""viewing_time"":1446}]",1446,instructions,65,8716230,0.0-65.0,"""","""","""","""",2021-11-09 15:52:12,73.173.53.236,Mozilla/5.0 (Macintosh; Intel Mac OS X 10.15; rv:94.0) Gecko/20100101 Firefox/94.0,Macintosh,Firefox,94.0,OS X,10.15,8f8fbc6ef03fcbbd2622e55cc1f13f7b
13,1,"[{""page_index"":0,""viewing_time"":6960.799999952316},{""page_index"":1,""viewing_time"":798.7999999523163},{""page_index"":2,""viewing_time"":2430.4000000953674},{""page_index"":3,""viewing_time"":19890.599999904633}]",30081.200000047684,instructions,0,30109,0.0-0.0,"""","""",,,2021-07-12 15:13:12,64.137.131.82,"Mozilla/5.0 (Macintosh; Intel Mac OS X 10_15_7) AppleWebKit/537.36 (KHTML, like Gecko) Chrome/91.0.4472.114 Safari/537.36",Macintosh,Chrome,91.0.4472.114,OS X,10_15_7,
13,1,"[{""page_index"":0,""viewing_time"":9700.299999952316}]",9700.400000095367,instructions,1,39816,0.0-1.0,"""","""",,,2021-07-12 15:13:12,64.137.131.82,"Mozilla/5.0 (Macintosh; Intel Mac OS X 10_15_7) AppleWebKit/537.36 (KHTML, like Gecko) Chrome/91.0.4472.114 Safari/537.36",Macintosh,Chrome,91.0.4472.114,OS X,10_15_7,
13,1,"""",381905.10000014305,survey-likert,2,421729,0.0-2.0,"{""rp_name_relation"":2,""ap_ref_tonal"":3,""rp_to_ap"":4,""ap_name_relation"":5,""ap_produce_abref"":6,""ap_id_440"":5,""ap_lose"":4,""ap_to_rp"":3,""ap_remember_group"":2,""ap_produce_440"":1,""rp_name_abref"":1,""ap_name_abref"":2,""rp_lose"":4,""rp_remember_group"":5,""rp_id_440"":6,""ap_perceive_same"":5,""rp_produce_interval"":4,""rp_produce_tonality"":3,""ap_produce_tonality"":2,""rp_ref_tonal"":1,""rp_perceive_same"":0,""rp_produce_440"":1,""ap_produce_interval"":2,""rp_produce_abref"":3,""ap_id_interval"":4,""rp_id_interval"":3}","[5,2,13,19,25,22,27,21,26,23,14,9,24,15,12,11,7,20,4,1,16,0,6,8,18,10,17,3]",,,2021-07-12 15:13:12,64.137.131.82,"Mozilla/5.0 (Macintosh; Intel Mac OS X 10_15_7) AppleWebKit/537.36 (KHTML, like Gecko) Chrome/91.0.4472.114 Safari/537.36",Macintosh,Chrome,91.0.4472.114,OS X,10_15_7,
13,1,"""",6702.299999952316,survey-text,3,428444,0.0-3.0,"{""Q0"":""}","""",,,2021-07-12 15:13:12,64.137.131.82,"Mozilla/5.0 (Macintosh; Intel Mac OS X 10_15_7) AppleWebKit/537.36 (KHTML, like Gecko) Chrome/91.0.4472.114 Safari/537.36",Macintosh,Chrome,91.0.4472.114,OS X,10_15_7,
13,1,"""",6747.800000190735,survey-text,4,435194,0.0-4.0,"{""Q0"":""}","""",,,2021-07-12 15:13:12,64.137.131.82,"Mozilla/5.0 (Macintosh; Intel Mac OS X 10_15_7) AppleWebKit/537.36 (KHTML, like Gecko) Chrome/91.0.4472.114 Safari/537.36",Macintosh,Chrome,91.0.4472.114,OS X,10_15_7,
13,1,"[{""page_index"":0,""viewing_time"":1933.3999998569489}]",1934.3999998569489,instructions,5,437129,0.0-5.0,"""","""",,,2021-07-12 15:13:12,64.137.131.82,"Mozilla/5.0 (Macintosh; Intel Mac OS X 10_15_7) AppleWebKit/537.36 (KHTML, like Gecko) Chrome/91.0.4472.114 Safari/537.36",Macintosh,Chrome,91.0.4472.114,OS X,10_15_7,
13,1,"""",41837.700000047684,survey-likert,6,478972,0.0-6.0,"{""ap_better_others"":0,""rp_override"":0,""rp_trained_ap"":0,""rp_normal"":0,""ap_override"":0,""ap_people_all"":0,""rp_better_others"":0,""rp_impaired"":0,""ap_tonedeaf"":0,""ap_normal"":0,""rp_tonedeaf"":0,""ap_impaired"":0,""re_people_al"":0,""ap_trained_ap"":0}","[13,2,3,5,9,7,6,1,11,12,4,8,0,10]",,,2021-07-12 15:13:12,64.137.131.82,"Mozilla/5.0 (Macintosh; Intel Mac OS X 10_15_7) AppleWebKit/537.36 (KHTML, like Gecko) Chrome/91.0.4472.114 Safari/537.36",Macintosh,Chrome,91.0.4472.114,OS X,10_15_7,
13,1,"[{""page_index"":0,""viewing_time"":27409.799999952316}]",27411,instructions,7,506385,0.0-7.0,"""","""",,,2021-07-12 15:13:12,64.137.131.82,"Mozilla/5.0 (Macintosh; Intel Mac OS X 10_15_7) AppleWebKit/537.36 (KHTML, like Gecko) Chrome/91.0.4472.114 Safari/537.36",Macintosh,Chrome,91.0.4472.114,OS X,10_15_7,
13,1,"[{""page_index"":0,""viewing_time"":5567.700000047684}]",5568.800000190735,instructions,8,511954,0.0-8.0,"""","""",,,2021-07-12 15:13:12,64.137.131.82,"Mozilla/5.0 (Macintosh; Intel Mac OS X 10_15_7) AppleWebKit/537.36 (KHTML, like Gecko) Chrome/91.0.4472.114 Safari/537.36",Macintosh,Chrome,91.0.4472.114,OS X,10_15_7,
13,1,"[{""page_index"":0,""viewing_time"":491532.69999980927}]",491533.2999999523,instructions,9,1003487,0.0-9.0,"""","""",,,2021-07-12 15:13:12,64.137.131.82,"Mozilla/5.0 (Macintosh; Intel Mac OS X 10_15_7) AppleWebKit/537.36 (KHTML, like Gecko) Chrome/91.0.4472.114 Safari/537.36",Macintosh,Chrome,91.0.4472.114,OS X,10_15_7,
13,1,"""",127776.60000014305,survey-text,10,1131265,0.0-10.0,"{""Q0"":""}","""",,,2021-07-12 15:13:12,64.137.131.82,"Mozilla/5.0 (Macintosh; Intel Mac OS X 10_15_7) AppleWebKit/537.36 (KHTML, like Gecko) Chrome/91.0.4472.114 Safari/537.36",Macintosh,Chrome,91.0.4472.114,OS X,10_15_7,
13,1,"""",641102.7000000477,survey-likert,11,1772368,0.0-11.0,"{""X"":"",""Y"":"",""Z"":""}","[0,1,2]",,,2021-07-12 15:13:12,64.137.131.82,"Mozilla/5.0 (Macintosh; Intel Mac OS X 10_15_7) AppleWebKit/537.36 (KHTML, like Gecko) Chrome/91.0.4472.114 Safari/537.36",Macintosh,Chrome,91.0.4472.114,OS X,10_15_7,
13,1,"""",13587.299999952316,survey-text,12,1785958,0.0-12.0,"{""Q0"":""}","""",,,2021-07-12 15:13:12,64.137.131.82,"Mozilla/5.0 (Macintosh; Intel Mac OS X 10_15_7) AppleWebKit/537.36 (KHTML, like Gecko) Chrome/91.0.4472.114 Safari/537.36",Macintosh,Chrome,91.0.4472.114,OS X,10_15_7,
13,1,"""",5138.699999809265,survey-likert,13,1791099,0.0-13.0,"{""X"":"",""Y"":"",""Z"":""}","[0,1,2]",,,2021-07-12 15:13:12,64.137.131.82,"Mozilla/5.0 (Macintosh; Intel Mac OS X 10_15_7) AppleWebKit/537.36 (KHTML, like Gecko) Chrome/91.0.4472.114 Safari/537.36",Macintosh,Chrome,91.0.4472.114,OS X,10_15_7,
13,1,"""",1358.4000000953674,survey-text,14,1792460,0.0-14.0,"{""Q0"":""}","""",,,2021-07-12 15:13:12,64.137.131.82,"Mozilla/5.0 (Macintosh; Intel Mac OS X 10_15_7) AppleWebKit/537.36 (KHTML, like Gecko) Chrome/91.0.4472.114 Safari/537.36",Macintosh,Chrome,91.0.4472.114,OS X,10_15_7,
13,1,"""",920.5,survey-likert,15,1793383,0.0-15.0,"{""X"":"",""Y"":"",""Z"":""}","[0,1,2]",,,2021-07-12 15:13:12,64.137.131.82,"Mozilla/5.0 (Macintosh; Intel Mac OS X 10_15_7) AppleWebKit/537.36 (KHTML, like Gecko) Chrome/91.0.4472.114 Safari/537.36",Macintosh,Chrome,91.0.4472.114,OS X,10_15_7,
13,1,"""",1437.2000000476837,survey-text,16,1794823,0.0-16.0,"{""Q0"":""}","""",,,2021-07-12 15:13:12,64.137.131.82,"Mozilla/5.0 (Macintosh; Intel Mac OS X 10_15_7) AppleWebKit/537.36 (KHTML, like Gecko) Chrome/91.0.4472.114 Safari/537.36",Macintosh,Chrome,91.0.4472.114,OS X,10_15_7,
13,1,"""",943.6999998092651,survey-likert,17,1795768,0.0-17.0,"{""X"":"",""Y"":"",""Z"":""}","[0,1,2]",,,2021-07-12 15:13:12,64.137.131.82,"Mozilla/5.0 (Macintosh; Intel Mac OS X 10_15_7) AppleWebKit/537.36 (KHTML, like Gecko) Chrome/91.0.4472.114 Safari/537.36",Macintosh,Chrome,91.0.4472.114,OS X,10_15_7,
13,1,"""",841,survey-text,18,1796611,0.0-18.0,"{""Q0"":""}","""",,,2021-07-12 15:13:12,64.137.131.82,"Mozilla/5.0 (Macintosh; Intel Mac OS X 10_15_7) AppleWebKit/537.36 (KHTML, like Gecko) Chrome/91.0.4472.114 Safari/537.36",Macintosh,Chrome,91.0.4472.114,OS X,10_15_7,
13,1,"""",1213.8999998569489,survey-likert,19,1797827,0.0-19.0,"{""X"":"",""Y"":"",""Z"":""}","[0,1,2]",,,2021-07-12 15:13:12,64.137.131.82,"Mozilla/5.0 (Macintosh; Intel Mac OS X 10_15_7) AppleWebKit/537.36 (KHTML, like Gecko) Chrome/91.0.4472.114 Safari/537.36",Macintosh,Chrome,91.0.4472.114,OS X,10_15_7,
13,1,"""",2640.4000000953674,survey-text,20,1800471,0.0-20.0,"{""Q0"":""}","""",,,2021-07-12 15:13:12,64.137.131.82,"Mozilla/5.0 (Macintosh; Intel Mac OS X 10_15_7) AppleWebKit/537.36 (KHTML, like Gecko) Chrome/91.0.4472.114 Safari/537.36",Macintosh,Chrome,91.0.4472.114,OS X,10_15_7,
13,1,"""",1504.5999999046326,survey-likert,21,1801978,0.0-21.0,"{""X"":"",""Y"":"",""Z"":""}","[0,1,2]",,,2021-07-12 15:13:12,64.137.131.82,"Mozilla/5.0 (Macintosh; Intel Mac OS X 10_15_7) AppleWebKit/537.36 (KHTML, like Gecko) Chrome/91.0.4472.114 Safari/537.36",Macintosh,Chrome,91.0.4472.114,OS X,10_15_7,
13,1,"""",786.2999999523163,survey-text,22,1802767,0.0-22.0,"{""Q0"":""}","""",,,2021-07-12 15:13:12,64.137.131.82,"Mozilla/5.0 (Macintosh; Intel Mac OS X 10_15_7) AppleWebKit/537.36 (KHTML, like Gecko) Chrome/91.0.4472.114 Safari/537.36",Macintosh,Chrome,91.0.4472.114,OS X,10_15_7,
13,1,"""",986.7999999523163,survey-likert,23,1803756,0.0-23.0,"{""X"":"",""Y"":"",""Z"":""}","[0,1,2]",,,2021-07-12 15:13:12,64.137.131.82,"Mozilla/5.0 (Macintosh; Intel Mac OS X 10_15_7) AppleWebKit/537.36 (KHTML, like Gecko) Chrome/91.0.4472.114 Safari/537.36",Macintosh,Chrome,91.0.4472.114,OS X,10_15_7,
13,1,"""",749.2999999523163,survey-text,24,1804509,0.0-24.0,"{""Q0"":""}","""",,,2021-07-12 15:13:12,64.137.131.82,"Mozilla/5.0 (Macintosh; Intel Mac OS X 10_15_7) AppleWebKit/537.36 (KHTML, like Gecko) Chrome/91.0.4472.114 Safari/537.36",Macintosh,Chrome,91.0.4472.114,OS X,10_15_7,
13,1,"""",774.7000000476837,survey-likert,25,1805286,0.0-25.0,"{""X"":"",""Y"":"",""Z"":""}","[0,1,2]",,,2021-07-12 15:13:12,64.137.131.82,"Mozilla/5.0 (Macintosh; Intel Mac OS X 10_15_7) AppleWebKit/537.36 (KHTML, like Gecko) Chrome/91.0.4472.114 Safari/537.36",Macintosh,Chrome,91.0.4472.114,OS X,10_15_7,
13,1,"""",1618.5,survey-text,26,1806906,0.0-26.0,"{""Q0"":""}","""",,,2021-07-12 15:13:12,64.137.131.82,"Mozilla/5.0 (Macintosh; Intel Mac OS X 10_15_7) AppleWebKit/537.36 (KHTML, like Gecko) Chrome/91.0.4472.114 Safari/537.36",Macintosh,Chrome,91.0.4472.114,OS X,10_15_7,
13,1,"""",1505.7000000476837,survey-likert,27,1808414,0.0-27.0,"{""X"":"",""Y"":"",""Z"":""}","[0,1,2]",,,2021-07-12 15:13:12,64.137.131.82,"Mozilla/5.0 (Macintosh; Intel Mac OS X 10_15_7) AppleWebKit/537.36 (KHTML, like Gecko) Chrome/91.0.4472.114 Safari/537.36",Macintosh,Chrome,91.0.4472.114,OS X,10_15_7,
13,1,"""",931.2000000476837,survey-text,28,1809347,0.0-28.0,"{""Q0"":""}","""",,,2021-07-12 15:13:12,64.137.131.82,"Mozilla/5.0 (Macintosh; Intel Mac OS X 10_15_7) AppleWebKit/537.36 (KHTML, like Gecko) Chrome/91.0.4472.114 Safari/537.36",Macintosh,Chrome,91.0.4472.114,OS X,10_15_7,
13,1,"""",15950.300000190735,survey-likert,29,1825300,0.0-29.0,"{""X"":0,""Y"":0,""Z"":0}","[0,1,2]",,,2021-07-12 15:13:12,64.137.131.82,"Mozilla/5.0 (Macintosh; Intel Mac OS X 10_15_7) AppleWebKit/537.36 (KHTML, like Gecko) Chrome/91.0.4472.114 Safari/537.36",Macintosh,Chrome,91.0.4472.114,OS X,10_15_7,
13,1,"[{""page_index"":0,""viewing_time"":8089.299999952316}]",8089.699999809265,instructions,30,1833391,0.0-30.0,"""","""",,,2021-07-12 15:13:12,64.137.131.82,"Mozilla/5.0 (Macintosh; Intel Mac OS X 10_15_7) AppleWebKit/537.36 (KHTML, like Gecko) Chrome/91.0.4472.114 Safari/537.36",Macintosh,Chrome,91.0.4472.114,OS X,10_15_7,
13,1,"[{""page_index"":0,""viewing_time"":24194.099999904633}]",24194.5,instructions,31,1857587,0.0-31.0,"""","""",,,2021-07-12 15:13:12,64.137.131.82,"Mozilla/5.0 (Macintosh; Intel Mac OS X 10_15_7) AppleWebKit/537.36 (KHTML, like Gecko) Chrome/91.0.4472.114 Safari/537.36",Macintosh,Chrome,91.0.4472.114,OS X,10_15_7,
13,1,"""",611892.7000000477,survey-multi-select,32,2469485,0.0-32.0,"{""Colors"":[""Collegiate private lessons (in music performance)"",""Music courses for collegiate music majors not listed here"",""General education music courses for collegiate students""]}",[0],,,2021-07-12 15:13:12,64.137.131.82,"Mozilla/5.0 (Macintosh; Intel Mac OS X 10_15_7) AppleWebKit/537.36 (KHTML, like Gecko) Chrome/91.0.4472.114 Safari/537.36",Macintosh,Chrome,91.0.4472.114,OS X,10_15_7,
13,1,"""",37301.90000009537,survey-text,33,2506791,0.0-33.0,"{""Q0"":""}","""",,,2021-07-12 15:13:12,64.137.131.82,"Mozilla/5.0 (Macintosh; Intel Mac OS X 10_15_7) AppleWebKit/537.36 (KHTML, like Gecko) Chrome/91.0.4472.114 Safari/537.36",Macintosh,Chrome,91.0.4472.114,OS X,10_15_7,
13,1,"""",92299.89999985695,survey-multi-select,34,2599098,0.0-34.0,"{""Colors"":[""HS diploma"",""Ph.D. in Music Theory/Musicology""]}",[0],,,2021-07-12 15:13:12,64.137.131.82,"Mozilla/5.0 (Macintosh; Intel Mac OS X 10_15_7) AppleWebKit/537.36 (KHTML, like Gecko) Chrome/91.0.4472.114 Safari/537.36",Macintosh,Chrome,91.0.4472.114,OS X,10_15_7,
13,1,"""",121701.40000009537,survey-text,35,2720803,0.0-35.0,"{""Q0"":""}","""",,,2021-07-12 15:13:12,64.137.131.82,"Mozilla/5.0 (Macintosh; Intel Mac OS X 10_15_7) AppleWebKit/537.36 (KHTML, like Gecko) Chrome/91.0.4472.114 Safari/537.36",Macintosh,Chrome,91.0.4472.114,OS X,10_15_7,
13,1,"""",57075.5,survey-multi-select,36,2777887,0.0-36.0,"{""Colors"":[""Public institution""]}",[0],,,2021-07-12 15:13:12,64.137.131.82,"Mozilla/5.0 (Macintosh; Intel Mac OS X 10_15_7) AppleWebKit/537.36 (KHTML, like Gecko) Chrome/91.0.4472.114 Safari/537.36",Macintosh,Chrome,91.0.4472.114,OS X,10_15_7,
13,1,"""",56188.40000009537,survey-multi-select,37,2834081,0.0-37.0,"{""Colors"":[""K-12 School Teacher""]}",[0],,,2021-07-12 15:13:12,64.137.131.82,"Mozilla/5.0 (Macintosh; Intel Mac OS X 10_15_7) AppleWebKit/537.36 (KHTML, like Gecko) Chrome/91.0.4472.114 Safari/537.36",Macintosh,Chrome,91.0.4472.114,OS X,10_15_7,
13,1,"[{""page_index"":0,""viewing_time"":29260.300000190735}]",29261.10000014305,instructions,38,2863342,0.0-38.0,"""","""",,,2021-07-12 15:13:12,64.137.131.82,"Mozilla/5.0 (Macintosh; Intel Mac OS X 10_15_7) AppleWebKit/537.36 (KHTML, like Gecko) Chrome/91.0.4472.114 Safari/537.36",Macintosh,Chrome,91.0.4472.114,OS X,10_15_7,
13,1,"""",7128.799999952316,survey-text,39,2870475,0.0-39.0,"{""Q0"":""}","""",,,2021-07-12 15:13:12,64.137.131.82,"Mozilla/5.0 (Macintosh; Intel Mac OS X 10_15_7) AppleWebKit/537.36 (KHTML, like Gecko) Chrome/91.0.4472.114 Safari/537.36",Macintosh,Chrome,91.0.4472.114,OS X,10_15_7,
13,1,"""",108086.39999985695,survey-multi-select,40,2978577,0.0-40.0,"{""Colors"":[""Scale-degree numbers with inflections (e.g. An F# in the key of C is sung as Fi)""]}",[0],,,2021-07-12 15:13:12,64.137.131.82,"Mozilla/5.0 (Macintosh; Intel Mac OS X 10_15_7) AppleWebKit/537.36 (KHTML, like Gecko) Chrome/91.0.4472.114 Safari/537.36",Macintosh,Chrome,91.0.4472.114,OS X,10_15_7,
13,1,"""",38373.59999990463,survey-multi-select,41,3016964,0.0-41.0,"{""Colors"":[""Scale-degree numbers with inflections""]}",[0],,,2021-07-12 15:13:12,64.137.131.82,"Mozilla/5.0 (Macintosh; Intel Mac OS X 10_15_7) AppleWebKit/537.36 (KHTML, like Gecko) Chrome/91.0.4472.114 Safari/537.36",Macintosh,Chrome,91.0.4472.114,OS X,10_15_7,
13,1,"""",6725.799999952316,survey-multi-select,42,3023703,0.0-42.0,"{""Colors"":[""Scale-degree numbers with inflections""]}",[0],,,2021-07-12 15:13:12,64.137.131.82,"Mozilla/5.0 (Macintosh; Intel Mac OS X 10_15_7) AppleWebKit/537.36 (KHTML, like Gecko) Chrome/91.0.4472.114 Safari/537.36",Macintosh,Chrome,91.0.4472.114,OS X,10_15_7,
13,1,"""",83922.20000004768,survey-text,43,3107628,0.0-43.0,"{""Q0"":""}","""",,,2021-07-12 15:13:12,64.137.131.82,"Mozilla/5.0 (Macintosh; Intel Mac OS X 10_15_7) AppleWebKit/537.36 (KHTML, like Gecko) Chrome/91.0.4472.114 Safari/537.36",Macintosh,Chrome,91.0.4472.114,OS X,10_15_7,
13,1,"""",176098.90000009537,survey-likert,44,3283728,0.0-44.0,"{""often"":"",""rp"":""}","[0,1]",,,2021-07-12 15:13:12,64.137.131.82,"Mozilla/5.0 (Macintosh; Intel Mac OS X 10_15_7) AppleWebKit/537.36 (KHTML, like Gecko) Chrome/91.0.4472.114 Safari/537.36",Macintosh,Chrome,91.0.4472.114,OS X,10_15_7,
13,1,"""",163035.10000014305,survey-multi-choice,45,3446766,0.0-45.0,"{""Vegetables"":""Yes"",""Fruit"":""Yes"",""Fruitz"":""Yes""}","[0,1,2]",,,2021-07-12 15:13:12,64.137.131.82,"Mozilla/5.0 (Macintosh; Intel Mac OS X 10_15_7) AppleWebKit/537.36 (KHTML, like Gecko) Chrome/91.0.4472.114 Safari/537.36",Macintosh,Chrome,91.0.4472.114,OS X,10_15_7,
13,1,"""",28197,survey-multi-select,46,3474969,0.0-46.0,"{""Colors"":[""Private college or university""]}",[0],,,2021-07-12 15:13:12,64.137.131.82,"Mozilla/5.0 (Macintosh; Intel Mac OS X 10_15_7) AppleWebKit/537.36 (KHTML, like Gecko) Chrome/91.0.4472.114 Safari/537.36",Macintosh,Chrome,91.0.4472.114,OS X,10_15_7,
13,1,"""",69647.40000009537,survey-text,47,3544620,0.0-47.0,"{""Q0"":""}","""",,,2021-07-12 15:13:12,64.137.131.82,"Mozilla/5.0 (Macintosh; Intel Mac OS X 10_15_7) AppleWebKit/537.36 (KHTML, like Gecko) Chrome/91.0.4472.114 Safari/537.36",Macintosh,Chrome,91.0.4472.114,OS X,10_15_7,
13,1,"""",66026,survey-multi-select,48,3610658,0.0-48.0,"{""Colors"":[""Doctorate (Ph.D.)""]}",[0],,,2021-07-12 15:13:12,64.137.131.82,"Mozilla/5.0 (Macintosh; Intel Mac OS X 10_15_7) AppleWebKit/537.36 (KHTML, like Gecko) Chrome/91.0.4472.114 Safari/537.36",Macintosh,Chrome,91.0.4472.114,OS X,10_15_7,
13,1,"""",9524.300000190735,survey-multi-select,49,3620187,0.0-49.0,"{""Colors"":[""Graduate student (teaching assistants)""]}",[0],,,2021-07-12 15:13:12,64.137.131.82,"Mozilla/5.0 (Macintosh; Intel Mac OS X 10_15_7) AppleWebKit/537.36 (KHTML, like Gecko) Chrome/91.0.4472.114 Safari/537.36",Macintosh,Chrome,91.0.4472.114,OS X,10_15_7,
13,1,"""",127370.5,survey-multi-select,50,3747562,0.0-50.0,"{""Colors"":[""Undergraduate degree in performance"",""Undergraduate degree in music theory or composition""]}",[0],,,2021-07-12 15:13:12,64.137.131.82,"Mozilla/5.0 (Macintosh; Intel Mac OS X 10_15_7) AppleWebKit/537.36 (KHTML, like Gecko) Chrome/91.0.4472.114 Safari/537.36",Macintosh,Chrome,91.0.4472.114,OS X,10_15_7,
13,1,"""",71884.89999985695,survey-text,51,3819450,0.0-51.0,"{""Q0"":""}","""",,,2021-07-12 15:13:12,64.137.131.82,"Mozilla/5.0 (Macintosh; Intel Mac OS X 10_15_7) AppleWebKit/537.36 (KHTML, like Gecko) Chrome/91.0.4472.114 Safari/537.36",Macintosh,Chrome,91.0.4472.114,OS X,10_15_7,
13,1,"""",1257.0999999046326,survey-text,52,3820710,0.0-52.0,"{""Q0"":""}","""",,,2021-07-12 15:13:12,64.137.131.82,"Mozilla/5.0 (Macintosh; Intel Mac OS X 10_15_7) AppleWebKit/537.36 (KHTML, like Gecko) Chrome/91.0.4472.114 Safari/537.36",Macintosh,Chrome,91.0.4472.114,OS X,10_15_7,
13,1,"""",44130.799999952316,survey-text,53,3864844,0.0-53.0,"{""Q0"":""}","""",,,2021-07-12 15:13:12,64.137.131.82,"Mozilla/5.0 (Macintosh; Intel Mac OS X 10_15_7) AppleWebKit/537.36 (KHTML, like Gecko) Chrome/91.0.4472.114 Safari/537.36",Macintosh,Chrome,91.0.4472.114,OS X,10_15_7,
13,1,"""",18819.799999952316,survey-text,54,3883666,0.0-54.0,"{""Q0"":""}","""",,,2021-07-12 15:13:12,64.137.131.82,"Mozilla/5.0 (Macintosh; Intel Mac OS X 10_15_7) AppleWebKit/537.36 (KHTML, like Gecko) Chrome/91.0.4472.114 Safari/537.36",Macintosh,Chrome,91.0.4472.114,OS X,10_15_7,
13,1,"[{""page_index"":0,""viewing_time"":9911}]",9912.299999952316,instructions,55,3893580,0.0-55.0,"""","""",,,2021-07-12 15:13:12,64.137.131.82,"Mozilla/5.0 (Macintosh; Intel Mac OS X 10_15_7) AppleWebKit/537.36 (KHTML, like Gecko) Chrome/91.0.4472.114 Safari/537.36",Macintosh,Chrome,91.0.4472.114,OS X,10_15_7,
14,1,"[{""page_index"":0,""viewing_time"":2366},{""page_index"":1,""viewing_time"":672},{""page_index"":2,""viewing_time"":1116}]",4155,instructions,0,4156,0.0-0.0,"""","""","""","""",2021-11-09 18:21:28,73.173.53.236,Mozilla/5.0 (Macintosh; Intel Mac OS X 10.15; rv:94.0) Gecko/20100101 Firefox/94.0,Macintosh,Firefox,94.0,OS X,10.15,8f8fbc6ef03fcbbd2622e55cc1f13f7b
14,1,"[{""page_index"":0,""viewing_time"":822}]",822,instructions,1,4981,0.0-1.0,"""","""","""","""",2021-11-09 18:21:28,73.173.53.236,Mozilla/5.0 (Macintosh; Intel Mac OS X 10.15; rv:94.0) Gecko/20100101 Firefox/94.0,Macintosh,Firefox,94.0,OS X,10.15,8f8fbc6ef03fcbbd2622e55cc1f13f7b
14,1,"""",34432,survey-likert,2,39419,0.0-2.0,"{""rp_ref_tonal"":7,""ap_name_abref"":7,""ap_lose"":7,""rp_id_440"":7,""rp_name_relation"":7,""rp_produce_440"":7,""ap_produce_tonality"":7,""ap_ref_tonal"":7,""rp_id_interval"":7,""rp_name_abref"":7,""ap_produce_440"":7,""ap_remember_group"":7,""ap_id_440"":7,""ap_perceive_same"":7,""rp_lose"":7,""rp_perceive_same"":7,""ap_produce_interval"":7,""rp_produce_tonality"":7,""rp_remember_group"":7,""ap_id_interval"":7,""ap_name_relation"":7,""ap_to_rp"":7,""rp_produce_interval"":7,""rp_to_ap"":7,""ap_produce_abref"":7,""rp_produce_abref"":7}","[0,24,27,7,5,8,16,14,3,9,23,26,22,20,12,6,18,1,11,17,15,19,21,4,13,25,10,2]","""","""",2021-11-09 18:21:28,73.173.53.236,Mozilla/5.0 (Macintosh; Intel Mac OS X 10.15; rv:94.0) Gecko/20100101 Firefox/94.0,Macintosh,Firefox,94.0,OS X,10.15,8f8fbc6ef03fcbbd2622e55cc1f13f7b
14,1,"""",4287,survey-text,3,43711,0.0-3.0,"{""Q0"":""sdf""}","""","""","""",2021-11-09 18:21:28,73.173.53.236,Mozilla/5.0 (Macintosh; Intel Mac OS X 10.15; rv:94.0) Gecko/20100101 Firefox/94.0,Macintosh,Firefox,94.0,OS X,10.15,8f8fbc6ef03fcbbd2622e55cc1f13f7b
14,1,"""",1836,survey-text,4,45555,0.0-4.0,"{""Q0"":""sdf""}","""","""","""",2021-11-09 18:21:28,73.173.53.236,Mozilla/5.0 (Macintosh; Intel Mac OS X 10.15; rv:94.0) Gecko/20100101 Firefox/94.0,Macintosh,Firefox,94.0,OS X,10.15,8f8fbc6ef03fcbbd2622e55cc1f13f7b
14,1,"[{""page_index"":0,""viewing_time"":1506}]",1506,instructions,5,47063,0.0-5.0,"""","""","""","""",2021-11-09 18:21:28,73.173.53.236,Mozilla/5.0 (Macintosh; Intel Mac OS X 10.15; rv:94.0) Gecko/20100101 Firefox/94.0,Macintosh,Firefox,94.0,OS X,10.15,8f8fbc6ef03fcbbd2622e55cc1f13f7b
14,1,"""",56438,survey-likert,6,103506,0.0-6.0,"{""ap_override"":7,""rp_tonedeaf"":7,""rp_normal"":7,""rp_override"":7,""rp_better_others"":7,""ap_impaired"":7,""ap_better_others"":7,""ap_trained_ap"":7,""ap_tonedeaf"":7,""rp_trained_ap"":7,""ap_people_all"":7,""ap_normal"":7,""rp_impaired"":7,""re_people_al"":7}","[9,4,5,2,6,8,13,10,11,3,7,12,1,0]","""","""",2021-11-09 18:21:28,73.173.53.236,Mozilla/5.0 (Macintosh; Intel Mac OS X 10.15; rv:94.0) Gecko/20100101 Firefox/94.0,Macintosh,Firefox,94.0,OS X,10.15,8f8fbc6ef03fcbbd2622e55cc1f13f7b
14,1,"[{""page_index"":0,""viewing_time"":1421}]",1421,instructions,7,104932,0.0-7.0,"""","""","""","""",2021-11-09 18:21:28,73.173.53.236,Mozilla/5.0 (Macintosh; Intel Mac OS X 10.15; rv:94.0) Gecko/20100101 Firefox/94.0,Macintosh,Firefox,94.0,OS X,10.15,8f8fbc6ef03fcbbd2622e55cc1f13f7b
14,1,"[{""page_index"":0,""viewing_time"":2904}]",2905,instructions,8,107838,0.0-8.0,"""","""","""","""",2021-11-09 18:21:28,73.173.53.236,Mozilla/5.0 (Macintosh; Intel Mac OS X 10.15; rv:94.0) Gecko/20100101 Firefox/94.0,Macintosh,Firefox,94.0,OS X,10.15,8f8fbc6ef03fcbbd2622e55cc1f13f7b
14,1,"[{""page_index"":0,""viewing_time"":8861}]",8861,instructions,9,116702,0.0-9.0,"""","""","""","""",2021-11-09 18:21:28,73.173.53.236,Mozilla/5.0 (Macintosh; Intel Mac OS X 10.15; rv:94.0) Gecko/20100101 Firefox/94.0,Macintosh,Firefox,94.0,OS X,10.15,8f8fbc6ef03fcbbd2622e55cc1f13f7b
14,1,"""",58927,survey-likert,10,175633,0.0-10.0,"{""rp_ac_rate"":1}",[0],"""","""",2021-11-09 18:21:28,73.173.53.236,Mozilla/5.0 (Macintosh; Intel Mac OS X 10.15; rv:94.0) Gecko/20100101 Firefox/94.0,Macintosh,Firefox,94.0,OS X,10.15,8f8fbc6ef03fcbbd2622e55cc1f13f7b
14,1,"""",9137,html-slider-response,11,184775,0.0-11.0,72,"""",<p></p>,50,2021-11-09 18:21:28,73.173.53.236,Mozilla/5.0 (Macintosh; Intel Mac OS X 10.15; rv:94.0) Gecko/20100101 Firefox/94.0,Macintosh,Firefox,94.0,OS X,10.15,8f8fbc6ef03fcbbd2622e55cc1f13f7b
14,1,"""",11275,survey-likert,12,196058,0.0-12.0,"{""rp_ac_rate"":""}",[0],"""","""",2021-11-09 18:21:28,73.173.53.236,Mozilla/5.0 (Macintosh; Intel Mac OS X 10.15; rv:94.0) Gecko/20100101 Firefox/94.0,Macintosh,Firefox,94.0,OS X,10.15,8f8fbc6ef03fcbbd2622e55cc1f13f7b
14,1,"""",5768,html-slider-response,13,201828,0.0-13.0,71,"""",<p></p>,50,2021-11-09 18:21:28,73.173.53.236,Mozilla/5.0 (Macintosh; Intel Mac OS X 10.15; rv:94.0) Gecko/20100101 Firefox/94.0,Macintosh,Firefox,94.0,OS X,10.15,8f8fbc6ef03fcbbd2622e55cc1f13f7b
14,1,"""",703492,survey-likert,14,905349,0.0-14.0,"{""often"":5,""rp"":5}","[0,1,2,3]","""","""",2021-11-09 18:21:28,73.173.53.236,Mozilla/5.0 (Macintosh; Intel Mac OS X 10.15; rv:94.0) Gecko/20100101 Firefox/94.0,Macintosh,Firefox,94.0,OS X,10.15,8f8fbc6ef03fcbbd2622e55cc1f13f7b
14,1,"""",3370,survey-text,15,908724,0.0-15.0,"{""Q0"":""}","""","""","""",2021-11-09 18:21:28,73.173.53.236,Mozilla/5.0 (Macintosh; Intel Mac OS X 10.15; rv:94.0) Gecko/20100101 Firefox/94.0,Macintosh,Firefox,94.0,OS X,10.15,8f8fbc6ef03fcbbd2622e55cc1f13f7b
14,1,"""",12475,survey-likert,16,921208,0.0-16.0,"{""rp_ac_rate"":8}","[0,1,2,3,4]","""","""",2021-11-09 18:21:28,73.173.53.236,Mozilla/5.0 (Macintosh; Intel Mac OS X 10.15; rv:94.0) Gecko/20100101 Firefox/94.0,Macintosh,Firefox,94.0,OS X,10.15,8f8fbc6ef03fcbbd2622e55cc1f13f7b
14,1,"""",1740,survey-text,17,922955,0.0-17.0,"{""Q0"":""}","""","""","""",2021-11-09 18:21:28,73.173.53.236,Mozilla/5.0 (Macintosh; Intel Mac OS X 10.15; rv:94.0) Gecko/20100101 Firefox/94.0,Macintosh,Firefox,94.0,OS X,10.15,8f8fbc6ef03fcbbd2622e55cc1f13f7b
14,1,"""",1731,survey-likert,18,924693,0.0-18.0,"{""rp_ac_rate"":""}","[0,1,2,3,4]","""","""",2021-11-09 18:21:28,73.173.53.236,Mozilla/5.0 (Macintosh; Intel Mac OS X 10.15; rv:94.0) Gecko/20100101 Firefox/94.0,Macintosh,Firefox,94.0,OS X,10.15,8f8fbc6ef03fcbbd2622e55cc1f13f7b
14,1,"""",1415,survey-text,19,926116,0.0-19.0,"{""Q0"":""}","""","""","""",2021-11-09 18:21:28,73.173.53.236,Mozilla/5.0 (Macintosh; Intel Mac OS X 10.15; rv:94.0) Gecko/20100101 Firefox/94.0,Macintosh,Firefox,94.0,OS X,10.15,8f8fbc6ef03fcbbd2622e55cc1f13f7b
14,1,"""",1218,survey-likert,20,927341,0.0-20.0,"{""rp_ac_rate"":""}","[0,1,2,3,4]","""","""",2021-11-09 18:21:28,73.173.53.236,Mozilla/5.0 (Macintosh; Intel Mac OS X 10.15; rv:94.0) Gecko/20100101 Firefox/94.0,Macintosh,Firefox,94.0,OS X,10.15,8f8fbc6ef03fcbbd2622e55cc1f13f7b
14,1,"""",1080,survey-text,21,928426,0.0-21.0,"{""Q0"":""}","""","""","""",2021-11-09 18:21:28,73.173.53.236,Mozilla/5.0 (Macintosh; Intel Mac OS X 10.15; rv:94.0) Gecko/20100101 Firefox/94.0,Macintosh,Firefox,94.0,OS X,10.15,8f8fbc6ef03fcbbd2622e55cc1f13f7b
14,1,"""",1191,survey-likert,22,929624,0.0-22.0,"{""rp_ac_rate"":""}","[0,1,2,3,4]","""","""",2021-11-09 18:21:28,73.173.53.236,Mozilla/5.0 (Macintosh; Intel Mac OS X 10.15; rv:94.0) Gecko/20100101 Firefox/94.0,Macintosh,Firefox,94.0,OS X,10.15,8f8fbc6ef03fcbbd2622e55cc1f13f7b
14,1,"""",1704,survey-text,23,931333,0.0-23.0,"{""Q0"":""}","""","""","""",2021-11-09 18:21:28,73.173.53.236,Mozilla/5.0 (Macintosh; Intel Mac OS X 10.15; rv:94.0) Gecko/20100101 Firefox/94.0,Macintosh,Firefox,94.0,OS X,10.15,8f8fbc6ef03fcbbd2622e55cc1f13f7b
14,1,"""",1359,survey-likert,24,932696,0.0-24.0,"{""rp_ac_rate"":""}","[0,1,2,3,4]","""","""",2021-11-09 18:21:28,73.173.53.236,Mozilla/5.0 (Macintosh; Intel Mac OS X 10.15; rv:94.0) Gecko/20100101 Firefox/94.0,Macintosh,Firefox,94.0,OS X,10.15,8f8fbc6ef03fcbbd2622e55cc1f13f7b
14,1,"[{""page_index"":0,""viewing_time"":1507}]",1507,instructions,25,934206,0.0-25.0,"""","""","""","""",2021-11-09 18:21:28,73.173.53.236,Mozilla/5.0 (Macintosh; Intel Mac OS X 10.15; rv:94.0) Gecko/20100101 Firefox/94.0,Macintosh,Firefox,94.0,OS X,10.15,8f8fbc6ef03fcbbd2622e55cc1f13f7b
14,1,"""",1549,survey-text,26,935762,0.0-26.0,"{""Q0"":""}","""","""","""",2021-11-09 18:21:28,73.173.53.236,Mozilla/5.0 (Macintosh; Intel Mac OS X 10.15; rv:94.0) Gecko/20100101 Firefox/94.0,Macintosh,Firefox,94.0,OS X,10.15,8f8fbc6ef03fcbbd2622e55cc1f13f7b
14,1,"""",70560,survey-likert,27,1006329,0.0-27.0,"{""rp_ac_rate"":8}","[0,1,2,3,4]","""","""",2021-11-09 18:21:28,73.173.53.236,Mozilla/5.0 (Macintosh; Intel Mac OS X 10.15; rv:94.0) Gecko/20100101 Firefox/94.0,Macintosh,Firefox,94.0,OS X,10.15,8f8fbc6ef03fcbbd2622e55cc1f13f7b
14,1,"""",1590,survey-text,28,1007926,0.0-28.0,"{""Q0"":""}","""","""","""",2021-11-09 18:21:28,73.173.53.236,Mozilla/5.0 (Macintosh; Intel Mac OS X 10.15; rv:94.0) Gecko/20100101 Firefox/94.0,Macintosh,Firefox,94.0,OS X,10.15,8f8fbc6ef03fcbbd2622e55cc1f13f7b
14,1,"""",3150,survey-likert,29,1011080,0.0-29.0,"{""rp_ac_rate"":""}","[0,1,2,3,4]","""","""",2021-11-09 18:21:28,73.173.53.236,Mozilla/5.0 (Macintosh; Intel Mac OS X 10.15; rv:94.0) Gecko/20100101 Firefox/94.0,Macintosh,Firefox,94.0,OS X,10.15,8f8fbc6ef03fcbbd2622e55cc1f13f7b
14,1,"""",33024,survey-text,30,1044109,0.0-30.0,"{""Q0"":""}","""","""","""",2021-11-09 18:21:28,73.173.53.236,Mozilla/5.0 (Macintosh; Intel Mac OS X 10.15; rv:94.0) Gecko/20100101 Firefox/94.0,Macintosh,Firefox,94.0,OS X,10.15,8f8fbc6ef03fcbbd2622e55cc1f13f7b
14,1,"""",1536,survey-likert,31,1045651,0.0-31.0,"{""rp_ac_rate"":""}","[0,1,2,3,4]","""","""",2021-11-09 18:21:28,73.173.53.236,Mozilla/5.0 (Macintosh; Intel Mac OS X 10.15; rv:94.0) Gecko/20100101 Firefox/94.0,Macintosh,Firefox,94.0,OS X,10.15,8f8fbc6ef03fcbbd2622e55cc1f13f7b
14,1,"""",1129,survey-text,32,1046783,0.0-32.0,"{""Q0"":""}","""","""","""",2021-11-09 18:21:28,73.173.53.236,Mozilla/5.0 (Macintosh; Intel Mac OS X 10.15; rv:94.0) Gecko/20100101 Firefox/94.0,Macintosh,Firefox,94.0,OS X,10.15,8f8fbc6ef03fcbbd2622e55cc1f13f7b
14,1,"""",1628,survey-likert,33,1048415,0.0-33.0,"{""rp_ac_rate"":""}","[0,1,2,3,4]","""","""",2021-11-09 18:21:28,73.173.53.236,Mozilla/5.0 (Macintosh; Intel Mac OS X 10.15; rv:94.0) Gecko/20100101 Firefox/94.0,Macintosh,Firefox,94.0,OS X,10.15,8f8fbc6ef03fcbbd2622e55cc1f13f7b
14,1,"""",1548,survey-text,34,1049969,0.0-34.0,"{""Q0"":""}","""","""","""",2021-11-09 18:21:28,73.173.53.236,Mozilla/5.0 (Macintosh; Intel Mac OS X 10.15; rv:94.0) Gecko/20100101 Firefox/94.0,Macintosh,Firefox,94.0,OS X,10.15,8f8fbc6ef03fcbbd2622e55cc1f13f7b
14,1,"""",11432,survey-likert,35,1061406,0.0-35.0,"{""rp_ac_rate"":""}","[0,1,2,3,4]","""","""",2021-11-09 18:21:28,73.173.53.236,Mozilla/5.0 (Macintosh; Intel Mac OS X 10.15; rv:94.0) Gecko/20100101 Firefox/94.0,Macintosh,Firefox,94.0,OS X,10.15,8f8fbc6ef03fcbbd2622e55cc1f13f7b
14,1,"""",28721,survey-text,36,1090132,0.0-36.0,"{""Q0"":""}","""","""","""",2021-11-09 18:21:28,73.173.53.236,Mozilla/5.0 (Macintosh; Intel Mac OS X 10.15; rv:94.0) Gecko/20100101 Firefox/94.0,Macintosh,Firefox,94.0,OS X,10.15,8f8fbc6ef03fcbbd2622e55cc1f13f7b
14,1,"""",9352,html-slider-response,37,1099488,0.0-37.0,69,"""",<p></p>,50,2021-11-09 18:21:28,73.173.53.236,Mozilla/5.0 (Macintosh; Intel Mac OS X 10.15; rv:94.0) Gecko/20100101 Firefox/94.0,Macintosh,Firefox,94.0,OS X,10.15,8f8fbc6ef03fcbbd2622e55cc1f13f7b
14,1,"""",10903,survey-text,38,1110400,0.0-38.0,"{""Q0"":""j""}","""","""","""",2021-11-09 18:21:28,73.173.53.236,Mozilla/5.0 (Macintosh; Intel Mac OS X 10.15; rv:94.0) Gecko/20100101 Firefox/94.0,Macintosh,Firefox,94.0,OS X,10.15,8f8fbc6ef03fcbbd2622e55cc1f13f7b
14,1,"""",13555,survey-text,39,1123961,0.0-39.0,"{""Q0"":""}","""","""","""",2021-11-09 18:21:28,73.173.53.236,Mozilla/5.0 (Macintosh; Intel Mac OS X 10.15; rv:94.0) Gecko/20100101 Firefox/94.0,Macintosh,Firefox,94.0,OS X,10.15,8f8fbc6ef03fcbbd2622e55cc1f13f7b
14,1,"""",128088,html-slider-response,40,1252053,0.0-40.0,64,"""",<p></p>,50,2021-11-09 18:21:28,73.173.53.236,Mozilla/5.0 (Macintosh; Intel Mac OS X 10.15; rv:94.0) Gecko/20100101 Firefox/94.0,Macintosh,Firefox,94.0,OS X,10.15,8f8fbc6ef03fcbbd2622e55cc1f13f7b
14,1,"[{""page_index"":0,""viewing_time"":1186}]",1186,instructions,41,1253243,0.0-41.0,"""","""","""","""",2021-11-09 18:21:28,73.173.53.236,Mozilla/5.0 (Macintosh; Intel Mac OS X 10.15; rv:94.0) Gecko/20100101 Firefox/94.0,Macintosh,Firefox,94.0,OS X,10.15,8f8fbc6ef03fcbbd2622e55cc1f13f7b
14,1,"[{""page_index"":0,""viewing_time"":11694}]",11694,instructions,42,1264938,0.0-42.0,"""","""","""","""",2021-11-09 18:21:28,73.173.53.236,Mozilla/5.0 (Macintosh; Intel Mac OS X 10.15; rv:94.0) Gecko/20100101 Firefox/94.0,Macintosh,Firefox,94.0,OS X,10.15,8f8fbc6ef03fcbbd2622e55cc1f13f7b
14,1,"""",6523,survey-multi-select,43,1271472,0.0-43.0,"{""Colors"":[""No Response""]}",[0],"""","""",2021-11-09 18:21:28,73.173.53.236,Mozilla/5.0 (Macintosh; Intel Mac OS X 10.15; rv:94.0) Gecko/20100101 Firefox/94.0,Macintosh,Firefox,94.0,OS X,10.15,8f8fbc6ef03fcbbd2622e55cc1f13f7b
14,1,"""",2377,survey-text,44,1273851,0.0-44.0,"{""Q0"":""d""}","""","""","""",2021-11-09 18:21:28,73.173.53.236,Mozilla/5.0 (Macintosh; Intel Mac OS X 10.15; rv:94.0) Gecko/20100101 Firefox/94.0,Macintosh,Firefox,94.0,OS X,10.15,8f8fbc6ef03fcbbd2622e55cc1f13f7b
14,1,"""",20126,survey-multi-select,45,1293985,0.0-45.0,"{""Colors"":[""Bachelors in music"",""Masters in music"",""DMA in Performance"",""Ph.D. in Composition""]}",[0],"""","""",2021-11-09 18:21:28,73.173.53.236,Mozilla/5.0 (Macintosh; Intel Mac OS X 10.15; rv:94.0) Gecko/20100101 Firefox/94.0,Macintosh,Firefox,94.0,OS X,10.15,8f8fbc6ef03fcbbd2622e55cc1f13f7b
14,1,"""",1947,survey-text,46,1295934,0.0-46.0,"{""Q0"":""d""}","""","""","""",2021-11-09 18:21:28,73.173.53.236,Mozilla/5.0 (Macintosh; Intel Mac OS X 10.15; rv:94.0) Gecko/20100101 Firefox/94.0,Macintosh,Firefox,94.0,OS X,10.15,8f8fbc6ef03fcbbd2622e55cc1f13f7b
14,1,"""",8513,survey-multi-select,47,1304451,0.0-47.0,"{""Colors"":[""NASM-accredited music program""]}",[0],"""","""",2021-11-09 18:21:28,73.173.53.236,Mozilla/5.0 (Macintosh; Intel Mac OS X 10.15; rv:94.0) Gecko/20100101 Firefox/94.0,Macintosh,Firefox,94.0,OS X,10.15,8f8fbc6ef03fcbbd2622e55cc1f13f7b
14,1,"""",17774,survey-multi-select,48,1322231,0.0-48.0,"{""Colors"":[""Full-Time Non-Tenure Eligible"",""Full-Time Tenured""]}",[0],"""","""",2021-11-09 18:21:28,73.173.53.236,Mozilla/5.0 (Macintosh; Intel Mac OS X 10.15; rv:94.0) Gecko/20100101 Firefox/94.0,Macintosh,Firefox,94.0,OS X,10.15,8f8fbc6ef03fcbbd2622e55cc1f13f7b
14,1,"[{""page_index"":0,""viewing_time"":1553}]",1553,instructions,49,1323787,0.0-49.0,"""","""","""","""",2021-11-09 18:21:28,73.173.53.236,Mozilla/5.0 (Macintosh; Intel Mac OS X 10.15; rv:94.0) Gecko/20100101 Firefox/94.0,Macintosh,Firefox,94.0,OS X,10.15,8f8fbc6ef03fcbbd2622e55cc1f13f7b
14,1,"""",3002,survey-text,50,1326792,0.0-50.0,"{""Q0"":""s""}","""","""","""",2021-11-09 18:21:28,73.173.53.236,Mozilla/5.0 (Macintosh; Intel Mac OS X 10.15; rv:94.0) Gecko/20100101 Firefox/94.0,Macintosh,Firefox,94.0,OS X,10.15,8f8fbc6ef03fcbbd2622e55cc1f13f7b
14,1,"""",72956,survey-multi-select,51,1399754,0.0-51.0,"{""Colors"":[""No Response""]}",[0],"""","""",2021-11-09 18:21:28,73.173.53.236,Mozilla/5.0 (Macintosh; Intel Mac OS X 10.15; rv:94.0) Gecko/20100101 Firefox/94.0,Macintosh,Firefox,94.0,OS X,10.15,8f8fbc6ef03fcbbd2622e55cc1f13f7b
14,1,"""",1678,survey-multi-select,52,1401437,0.0-52.0,"{""Colors"":[""German letter names""]}",[0],"""","""",2021-11-09 18:21:28,73.173.53.236,Mozilla/5.0 (Macintosh; Intel Mac OS X 10.15; rv:94.0) Gecko/20100101 Firefox/94.0,Macintosh,Firefox,94.0,OS X,10.15,8f8fbc6ef03fcbbd2622e55cc1f13f7b
14,1,"""",3806,survey-multi-select,53,1405246,0.0-53.0,"{""Colors"":[""German letter names""]}",[0],"""","""",2021-11-09 18:21:28,73.173.53.236,Mozilla/5.0 (Macintosh; Intel Mac OS X 10.15; rv:94.0) Gecko/20100101 Firefox/94.0,Macintosh,Firefox,94.0,OS X,10.15,8f8fbc6ef03fcbbd2622e55cc1f13f7b
14,1,"""",2780,survey-multi-select,54,1408031,0.0-54.0,"{""Colors"":[""No Response""]}",[0],"""","""",2021-11-09 18:21:28,73.173.53.236,Mozilla/5.0 (Macintosh; Intel Mac OS X 10.15; rv:94.0) Gecko/20100101 Firefox/94.0,Macintosh,Firefox,94.0,OS X,10.15,8f8fbc6ef03fcbbd2622e55cc1f13f7b
14,1,"""",2724,survey-text,55,1410757,0.0-55.0,"{""Q0"":""d""}","""","""","""",2021-11-09 18:21:28,73.173.53.236,Mozilla/5.0 (Macintosh; Intel Mac OS X 10.15; rv:94.0) Gecko/20100101 Firefox/94.0,Macintosh,Firefox,94.0,OS X,10.15,8f8fbc6ef03fcbbd2622e55cc1f13f7b
14,1,"""",7002,survey-multi-choice,56,1417763,0.0-56.0,"{""theory_track"":""NR"",""pitch_mem"":"",""score_transp"":""NR""}","[0,1,2]","""","""",2021-11-09 18:21:28,73.173.53.236,Mozilla/5.0 (Macintosh; Intel Mac OS X 10.15; rv:94.0) Gecko/20100101 Firefox/94.0,Macintosh,Firefox,94.0,OS X,10.15,8f8fbc6ef03fcbbd2622e55cc1f13f7b
14,1,"""",9628,survey-multi-select,57,1427395,0.0-57.0,"{""Colors"":[""Music Department within a liberal arts college"",""No Response""]}",[0],"""","""",2021-11-09 18:21:28,73.173.53.236,Mozilla/5.0 (Macintosh; Intel Mac OS X 10.15; rv:94.0) Gecko/20100101 Firefox/94.0,Macintosh,Firefox,94.0,OS X,10.15,8f8fbc6ef03fcbbd2622e55cc1f13f7b
14,1,"""",1135,survey-text,58,1428535,0.0-58.0,"{""Q0"":""}","""","""","""",2021-11-09 18:21:28,73.173.53.236,Mozilla/5.0 (Macintosh; Intel Mac OS X 10.15; rv:94.0) Gecko/20100101 Firefox/94.0,Macintosh,Firefox,94.0,OS X,10.15,8f8fbc6ef03fcbbd2622e55cc1f13f7b
14,1,"""",3667,survey-multi-select,59,1432207,0.0-59.0,"{""Colors"":[""Masters (MM)""]}",[0],"""","""",2021-11-09 18:21:28,73.173.53.236,Mozilla/5.0 (Macintosh; Intel Mac OS X 10.15; rv:94.0) Gecko/20100101 Firefox/94.0,Macintosh,Firefox,94.0,OS X,10.15,8f8fbc6ef03fcbbd2622e55cc1f13f7b
14,1,"""",6869,survey-multi-select,60,1439080,0.0-60.0,"{""Colors"":[""Full-time tenured""]}",[0],"""","""",2021-11-09 18:21:28,73.173.53.236,Mozilla/5.0 (Macintosh; Intel Mac OS X 10.15; rv:94.0) Gecko/20100101 Firefox/94.0,Macintosh,Firefox,94.0,OS X,10.15,8f8fbc6ef03fcbbd2622e55cc1f13f7b
14,1,"""",98107,survey-multi-select,61,1537194,0.0-61.0,"{""Colors"":[""Graduate degree in performance"",""Graduate degree in music theory or composition"",""No Response""]}",[0],"""","""",2021-11-09 18:21:28,73.173.53.236,Mozilla/5.0 (Macintosh; Intel Mac OS X 10.15; rv:94.0) Gecko/20100101 Firefox/94.0,Macintosh,Firefox,94.0,OS X,10.15,8f8fbc6ef03fcbbd2622e55cc1f13f7b
14,1,"""",3301,survey-text,62,1540500,0.0-62.0,"{""Q0"":""d""}","""","""","""",2021-11-09 18:21:28,73.173.53.236,Mozilla/5.0 (Macintosh; Intel Mac OS X 10.15; rv:94.0) Gecko/20100101 Firefox/94.0,Macintosh,Firefox,94.0,OS X,10.15,8f8fbc6ef03fcbbd2622e55cc1f13f7b
14,1,"""",692,survey-text,63,1541197,0.0-63.0,"{""Q0"":""}","""","""","""",2021-11-09 18:21:28,73.173.53.236,Mozilla/5.0 (Macintosh; Intel Mac OS X 10.15; rv:94.0) Gecko/20100101 Firefox/94.0,Macintosh,Firefox,94.0,OS X,10.15,8f8fbc6ef03fcbbd2622e55cc1f13f7b
14,1,"""",45902,survey-text,64,1587104,0.0-64.0,"{""Q0"":""}","""","""","""",2021-11-09 18:21:28,73.173.53.236,Mozilla/5.0 (Macintosh; Intel Mac OS X 10.15; rv:94.0) Gecko/20100101 Firefox/94.0,Macintosh,Firefox,94.0,OS X,10.15,8f8fbc6ef03fcbbd2622e55cc1f13f7b
14,1,"[{""page_index"":0,""viewing_time"":1046}]",1046,instructions,65,1588154,0.0-65.0,"""","""","""","""",2021-11-09 18:21:28,73.173.53.236,Mozilla/5.0 (Macintosh; Intel Mac OS X 10.15; rv:94.0) Gecko/20100101 Firefox/94.0,Macintosh,Firefox,94.0,OS X,10.15,8f8fbc6ef03fcbbd2622e55cc1f13f7b
15,1,"[{""page_index"":0,""viewing_time"":3467.100000023842},{""page_index"":1,""viewing_time"":901.1000000238419},{""page_index"":2,""viewing_time"":917.0999999642372}]",5286.600000023842,instructions,0,5302,0.0-0.0,"""","""","""","""",2021-11-22 11:41:12,176.26.232.213,"Mozilla/5.0 (Macintosh; Intel Mac OS X 10_15_7) AppleWebKit/537.36 (KHTML, like Gecko) Chrome/96.0.4664.45 Safari/537.36",Macintosh,Chrome,96.0.4664.45,OS X,10_15_7,447d70a80c75dce987d9c5508038710f
15,1,"[{""page_index"":0,""viewing_time"":933.3000000119209}]",933.8999999761581,instructions,1,6241,0.0-1.0,"""","""","""","""",2021-11-22 11:41:12,176.26.232.213,"Mozilla/5.0 (Macintosh; Intel Mac OS X 10_15_7) AppleWebKit/537.36 (KHTML, like Gecko) Chrome/96.0.4664.45 Safari/537.36",Macintosh,Chrome,96.0.4664.45,OS X,10_15_7,447d70a80c75dce987d9c5508038710f
15,1,"""",33668,survey-likert,2,39916,0.0-2.0,"{""ap_remember_group_27"":3,""ap_produce_abref_26"":3,""rp_id_interval_04"":3,""ap_ref_tonal_15"":3,""rp_produce_abref_11"":3,""rp_name_relation_06"":3,""ap_produce_440_24"":3,""rp_produce_tonality_02"":3,""rp_name_abref_10"":3,""ap_name_abref_25"":3,""ap_ref_tonal_03"":3,""ap_perceive_same_21"":3,""rp_produce_interval_05"":3,""ap_name_relation_20"":3,""rp_to_ap_14"":3,""rp_id_44_08"":3,""rp_produce_440_09"":3,""rp_remember_group_12"":3,""ap_lose_28"":3,""ap_produce_interval_19"":3,""ap_ref_tonal_16"":3,""rp_lose_13"":3,""ap_id_440_23"":3,""rp_perceive_same_07"":3,""ap_to_rp_22"":3,""ap_id_interval_18"":3,""rp_ref_tonal_01"":3,""ap_produce_tonality_17"":3}","[26,25,3,14,10,5,23,1,9,24,2,20,4,19,13,7,8,11,27,18,15,12,22,6,21,17,0,16]","""","""",2021-11-22 11:41:12,176.26.232.213,"Mozilla/5.0 (Macintosh; Intel Mac OS X 10_15_7) AppleWebKit/537.36 (KHTML, like Gecko) Chrome/96.0.4664.45 Safari/537.36",Macintosh,Chrome,96.0.4664.45,OS X,10_15_7,447d70a80c75dce987d9c5508038710f
15,1,"""",2366.100000023842,survey-text,3,42304,0.0-3.0,"{""Q0"":""dasfdas""}","""","""","""",2021-11-22 11:41:12,176.26.232.213,"Mozilla/5.0 (Macintosh; Intel Mac OS X 10_15_7) AppleWebKit/537.36 (KHTML, like Gecko) Chrome/96.0.4664.45 Safari/537.36",Macintosh,Chrome,96.0.4664.45,OS X,10_15_7,447d70a80c75dce987d9c5508038710f
15,1,"""",1367.0999999642372,survey-text,4,43674,0.0-4.0,"{""Q0"":""asdfasdf""}","""","""","""",2021-11-22 11:41:12,176.26.232.213,"Mozilla/5.0 (Macintosh; Intel Mac OS X 10_15_7) AppleWebKit/537.36 (KHTML, like Gecko) Chrome/96.0.4664.45 Safari/537.36",Macintosh,Chrome,96.0.4664.45,OS X,10_15_7,447d70a80c75dce987d9c5508038710f
15,1,"[{""page_index"":0,""viewing_time"":996.3000000119209}]",997.1999999880791,instructions,5,44672,0.0-5.0,"""","""","""","""",2021-11-22 11:41:12,176.26.232.213,"Mozilla/5.0 (Macintosh; Intel Mac OS X 10_15_7) AppleWebKit/537.36 (KHTML, like Gecko) Chrome/96.0.4664.45 Safari/537.36",Macintosh,Chrome,96.0.4664.45,OS X,10_15_7,447d70a80c75dce987d9c5508038710f
15,1,"""",18033.19999998808,survey-likert,6,62711,0.0-6.0,"{""rp_tonedeaf_5"":3,""rp_better_others_7"":3,""re_people_al_1"":3,""ap_tonedeaf_12"":3,""ap_normal_13"":3,""rp_impaired_2"":3,""ap_impaired_9"":3,""rp_override_3"":3,""rp_trained_ap_4"":3,""ap_override_10"":3,""ap_people_all_8"":3,""ap_better_others_14"":3,""ap_trained_ap_11"":3,""rp_normal_6"":3}","[4,6,0,11,12,1,8,2,3,9,7,13,10,5]","""","""",2021-11-22 11:41:12,176.26.232.213,"Mozilla/5.0 (Macintosh; Intel Mac OS X 10_15_7) AppleWebKit/537.36 (KHTML, like Gecko) Chrome/96.0.4664.45 Safari/537.36",Macintosh,Chrome,96.0.4664.45,OS X,10_15_7,447d70a80c75dce987d9c5508038710f
15,1,"[{""page_index"":0,""viewing_time"":1634.800000011921}]",1635.4000000357628,instructions,7,64349,0.0-7.0,"""","""","""","""",2021-11-22 11:41:12,176.26.232.213,"Mozilla/5.0 (Macintosh; Intel Mac OS X 10_15_7) AppleWebKit/537.36 (KHTML, like Gecko) Chrome/96.0.4664.45 Safari/537.36",Macintosh,Chrome,96.0.4664.45,OS X,10_15_7,447d70a80c75dce987d9c5508038710f
15,1,"[{""page_index"":0,""viewing_time"":978.1999999880791}]",978.8000000119209,instructions,8,65329,0.0-8.0,"""","""","""","""",2021-11-22 11:41:12,176.26.232.213,"Mozilla/5.0 (Macintosh; Intel Mac OS X 10_15_7) AppleWebKit/537.36 (KHTML, like Gecko) Chrome/96.0.4664.45 Safari/537.36",Macintosh,Chrome,96.0.4664.45,OS X,10_15_7,447d70a80c75dce987d9c5508038710f
15,1,"""",1902.6000000238419,html-slider-response,9,67237,0.0-9.0,22,"""",<p></p>,50,2021-11-22 11:41:12,176.26.232.213,"Mozilla/5.0 (Macintosh; Intel Mac OS X 10_15_7) AppleWebKit/537.36 (KHTML, like Gecko) Chrome/96.0.4664.45 Safari/537.36",Macintosh,Chrome,96.0.4664.45,OS X,10_15_7,447d70a80c75dce987d9c5508038710f
15,1,"""",1933.6000000238419,html-slider-response,10,69173,0.0-10.0,35,"""",<p></p>,50,2021-11-22 11:41:12,176.26.232.213,"Mozilla/5.0 (Macintosh; Intel Mac OS X 10_15_7) AppleWebKit/537.36 (KHTML, like Gecko) Chrome/96.0.4664.45 Safari/537.36",Macintosh,Chrome,96.0.4664.45,OS X,10_15_7,447d70a80c75dce987d9c5508038710f
15,1,"""",4982.099999964237,survey-likert,11,74159,0.0-11.0,"{""inst_priority_ap_01"":2,""inst_priority_rp_02"":2,""you_priority_ap_03"":2,""you_priority_rp_04"":1}","[0,1,2,3]","""","""",2021-11-22 11:41:12,176.26.232.213,"Mozilla/5.0 (Macintosh; Intel Mac OS X 10_15_7) AppleWebKit/537.36 (KHTML, like Gecko) Chrome/96.0.4664.45 Safari/537.36",Macintosh,Chrome,96.0.4664.45,OS X,10_15_7,447d70a80c75dce987d9c5508038710f
15,1,"""",2485,survey-text,12,76646,0.0-12.0,"{""Q0"":""asdfasdf""}","""","""","""",2021-11-22 11:41:12,176.26.232.213,"Mozilla/5.0 (Macintosh; Intel Mac OS X 10_15_7) AppleWebKit/537.36 (KHTML, like Gecko) Chrome/96.0.4664.45 Safari/537.36",Macintosh,Chrome,96.0.4664.45,OS X,10_15_7,447d70a80c75dce987d9c5508038710f
15,1,"""",7420.800000011921,survey-likert,13,84070,0.0-13.0,"{""use_skill_freq_01"":3,""easy_teach_02"":3,""easy_to_learn_03"":3,""helps_relative_04"":3,""reps_relative_05"":4}","[0,1,2,3,4]","""","""",2021-11-22 11:41:12,176.26.232.213,"Mozilla/5.0 (Macintosh; Intel Mac OS X 10_15_7) AppleWebKit/537.36 (KHTML, like Gecko) Chrome/96.0.4664.45 Safari/537.36",Macintosh,Chrome,96.0.4664.45,OS X,10_15_7,447d70a80c75dce987d9c5508038710f
15,1,"""",1862.5999999642372,survey-text,14,85935,0.0-14.0,"{""Q0"":""asdfa""}","""","""","""",2021-11-22 11:41:12,176.26.232.213,"Mozilla/5.0 (Macintosh; Intel Mac OS X 10_15_7) AppleWebKit/537.36 (KHTML, like Gecko) Chrome/96.0.4664.45 Safari/537.36",Macintosh,Chrome,96.0.4664.45,OS X,10_15_7,447d70a80c75dce987d9c5508038710f
15,1,"""",1213,survey-likert,15,87151,0.0-15.0,"{""use_skill_freq_01"":"",""easy_teach_02"":"",""easy_to_learn_03"":"",""helps_relative_04"":"",""reps_relative_05"":""}","[0,1,2,3,4]","""","""",2021-11-22 11:41:12,176.26.232.213,"Mozilla/5.0 (Macintosh; Intel Mac OS X 10_15_7) AppleWebKit/537.36 (KHTML, like Gecko) Chrome/96.0.4664.45 Safari/537.36",Macintosh,Chrome,96.0.4664.45,OS X,10_15_7,447d70a80c75dce987d9c5508038710f
15,1,"""",1598.4000000357628,survey-text,16,88752,0.0-16.0,"{""Q0"":""}","""","""","""",2021-11-22 11:41:12,176.26.232.213,"Mozilla/5.0 (Macintosh; Intel Mac OS X 10_15_7) AppleWebKit/537.36 (KHTML, like Gecko) Chrome/96.0.4664.45 Safari/537.36",Macintosh,Chrome,96.0.4664.45,OS X,10_15_7,447d70a80c75dce987d9c5508038710f
15,1,"""",1082.8999999761581,survey-likert,17,89839,0.0-17.0,"{""use_skill_freq_01"":"",""easy_teach_02"":"",""easy_to_learn_03"":"",""helps_relative_04"":"",""reps_relative_05"":""}","[0,1,2,3,4]","""","""",2021-11-22 11:41:12,176.26.232.213,"Mozilla/5.0 (Macintosh; Intel Mac OS X 10_15_7) AppleWebKit/537.36 (KHTML, like Gecko) Chrome/96.0.4664.45 Safari/537.36",Macintosh,Chrome,96.0.4664.45,OS X,10_15_7,447d70a80c75dce987d9c5508038710f
15,1,"""",1006,survey-text,18,90849,0.0-18.0,"{""Q0"":""}","""","""","""",2021-11-22 11:41:12,176.26.232.213,"Mozilla/5.0 (Macintosh; Intel Mac OS X 10_15_7) AppleWebKit/537.36 (KHTML, like Gecko) Chrome/96.0.4664.45 Safari/537.36",Macintosh,Chrome,96.0.4664.45,OS X,10_15_7,447d70a80c75dce987d9c5508038710f
15,1,"""",1459.300000011921,survey-likert,19,92311,0.0-19.0,"{""use_skill_freq_01"":"",""easy_teach_02"":"",""easy_to_learn_03"":"",""helps_relative_04"":"",""reps_relative_05"":""}","[0,1,2,3,4]","""","""",2021-11-22 11:41:12,176.26.232.213,"Mozilla/5.0 (Macintosh; Intel Mac OS X 10_15_7) AppleWebKit/537.36 (KHTML, like Gecko) Chrome/96.0.4664.45 Safari/537.36",Macintosh,Chrome,96.0.4664.45,OS X,10_15_7,447d70a80c75dce987d9c5508038710f
15,1,"""",920.1000000238419,survey-text,20,93236,0.0-20.0,"{""Q0"":""}","""","""","""",2021-11-22 11:41:12,176.26.232.213,"Mozilla/5.0 (Macintosh; Intel Mac OS X 10_15_7) AppleWebKit/537.36 (KHTML, like Gecko) Chrome/96.0.4664.45 Safari/537.36",Macintosh,Chrome,96.0.4664.45,OS X,10_15_7,447d70a80c75dce987d9c5508038710f
15,1,"""",1057.699999988079,survey-likert,21,94296,0.0-21.0,"{""use_skill_freq_01"":"",""easy_teach_02"":"",""easy_to_learn_03"":"",""helps_relative_04"":"",""reps_relative_05"":""}","[0,1,2,3,4]","""","""",2021-11-22 11:41:12,176.26.232.213,"Mozilla/5.0 (Macintosh; Intel Mac OS X 10_15_7) AppleWebKit/537.36 (KHTML, like Gecko) Chrome/96.0.4664.45 Safari/537.36",Macintosh,Chrome,96.0.4664.45,OS X,10_15_7,447d70a80c75dce987d9c5508038710f
15,1,"[{""page_index"":0,""viewing_time"":1327.3999999761581}]",1327.699999988079,instructions,22,95625,0.0-22.0,"""","""","""","""",2021-11-22 11:41:12,176.26.232.213,"Mozilla/5.0 (Macintosh; Intel Mac OS X 10_15_7) AppleWebKit/537.36 (KHTML, like Gecko) Chrome/96.0.4664.45 Safari/537.36",Macintosh,Chrome,96.0.4664.45,OS X,10_15_7,447d70a80c75dce987d9c5508038710f
15,1,"""",4825.400000035763,survey-text,23,100453,0.0-23.0,"{""Q0"":""asdfasdf""}","""","""","""",2021-11-22 11:41:12,176.26.232.213,"Mozilla/5.0 (Macintosh; Intel Mac OS X 10_15_7) AppleWebKit/537.36 (KHTML, like Gecko) Chrome/96.0.4664.45 Safari/537.36",Macintosh,Chrome,96.0.4664.45,OS X,10_15_7,447d70a80c75dce987d9c5508038710f
15,1,"""",7007.100000023842,survey-likert,24,107465,0.0-24.0,"{""teach_freq_ap_01"":1,""easy_teach_02"":1,""eash_learn_03"":1,""foster_ap_04"":1,""represent_ap_05"":1}","[0,1,2,3,4]","""","""",2021-11-22 11:41:12,176.26.232.213,"Mozilla/5.0 (Macintosh; Intel Mac OS X 10_15_7) AppleWebKit/537.36 (KHTML, like Gecko) Chrome/96.0.4664.45 Safari/537.36",Macintosh,Chrome,96.0.4664.45,OS X,10_15_7,447d70a80c75dce987d9c5508038710f
15,1,"""",1624.7000000476837,survey-text,25,109092,0.0-25.0,"{""Q0"":""asdfasdf""}","""","""","""",2021-11-22 11:41:12,176.26.232.213,"Mozilla/5.0 (Macintosh; Intel Mac OS X 10_15_7) AppleWebKit/537.36 (KHTML, like Gecko) Chrome/96.0.4664.45 Safari/537.36",Macintosh,Chrome,96.0.4664.45,OS X,10_15_7,447d70a80c75dce987d9c5508038710f
15,1,"""",1049.2000000476837,survey-likert,26,110146,0.0-26.0,"{""teach_freq_ap_01"":"",""easy_teach_02"":"",""eash_learn_03"":"",""foster_ap_04"":"",""represent_ap_05"":""}","[0,1,2,3,4]","""","""",2021-11-22 11:41:12,176.26.232.213,"Mozilla/5.0 (Macintosh; Intel Mac OS X 10_15_7) AppleWebKit/537.36 (KHTML, like Gecko) Chrome/96.0.4664.45 Safari/537.36",Macintosh,Chrome,96.0.4664.45,OS X,10_15_7,447d70a80c75dce987d9c5508038710f
15,1,"""",885.8000000119209,survey-text,27,111036,0.0-27.0,"{""Q0"":""}","""","""","""",2021-11-22 11:41:12,176.26.232.213,"Mozilla/5.0 (Macintosh; Intel Mac OS X 10_15_7) AppleWebKit/537.36 (KHTML, like Gecko) Chrome/96.0.4664.45 Safari/537.36",Macintosh,Chrome,96.0.4664.45,OS X,10_15_7,447d70a80c75dce987d9c5508038710f
15,1,"""",813.5,survey-likert,28,111852,0.0-28.0,"{""teach_freq_ap_01"":"",""easy_teach_02"":"",""eash_learn_03"":"",""foster_ap_04"":"",""represent_ap_05"":""}","[0,1,2,3,4]","""","""",2021-11-22 11:41:12,176.26.232.213,"Mozilla/5.0 (Macintosh; Intel Mac OS X 10_15_7) AppleWebKit/537.36 (KHTML, like Gecko) Chrome/96.0.4664.45 Safari/537.36",Macintosh,Chrome,96.0.4664.45,OS X,10_15_7,447d70a80c75dce987d9c5508038710f
15,1,"""",728.6000000238419,survey-text,29,112583,0.0-29.0,"{""Q0"":""}","""","""","""",2021-11-22 11:41:12,176.26.232.213,"Mozilla/5.0 (Macintosh; Intel Mac OS X 10_15_7) AppleWebKit/537.36 (KHTML, like Gecko) Chrome/96.0.4664.45 Safari/537.36",Macintosh,Chrome,96.0.4664.45,OS X,10_15_7,447d70a80c75dce987d9c5508038710f
15,1,"""",1077.0999999642372,survey-likert,30,113663,0.0-30.0,"{""teach_freq_ap_01"":"",""easy_teach_02"":"",""eash_learn_03"":"",""foster_ap_04"":"",""represent_ap_05"":""}","[0,1,2,3,4]","""","""",2021-11-22 11:41:12,176.26.232.213,"Mozilla/5.0 (Macintosh; Intel Mac OS X 10_15_7) AppleWebKit/537.36 (KHTML, like Gecko) Chrome/96.0.4664.45 Safari/537.36",Macintosh,Chrome,96.0.4664.45,OS X,10_15_7,447d70a80c75dce987d9c5508038710f
15,1,"""",827.5,survey-text,31,114494,0.0-31.0,"{""Q0"":""}","""","""","""",2021-11-22 11:41:12,176.26.232.213,"Mozilla/5.0 (Macintosh; Intel Mac OS X 10_15_7) AppleWebKit/537.36 (KHTML, like Gecko) Chrome/96.0.4664.45 Safari/537.36",Macintosh,Chrome,96.0.4664.45,OS X,10_15_7,447d70a80c75dce987d9c5508038710f
15,1,"""",816.7999999523163,survey-likert,32,115315,0.0-32.0,"{""teach_freq_ap_01"":"",""easy_teach_02"":"",""eash_learn_03"":"",""foster_ap_04"":"",""represent_ap_05"":""}","[0,1,2,3,4]","""","""",2021-11-22 11:41:12,176.26.232.213,"Mozilla/5.0 (Macintosh; Intel Mac OS X 10_15_7) AppleWebKit/537.36 (KHTML, like Gecko) Chrome/96.0.4664.45 Safari/537.36",Macintosh,Chrome,96.0.4664.45,OS X,10_15_7,447d70a80c75dce987d9c5508038710f
15,1,"""",2785.7999999523163,survey-text,33,118103,0.0-33.0,"{""Q0"":""asdfasdf""}","""","""","""",2021-11-22 11:41:12,176.26.232.213,"Mozilla/5.0 (Macintosh; Intel Mac OS X 10_15_7) AppleWebKit/537.36 (KHTML, like Gecko) Chrome/96.0.4664.45 Safari/537.36",Macintosh,Chrome,96.0.4664.45,OS X,10_15_7,447d70a80c75dce987d9c5508038710f
15,1,"""",3224.899999976158,html-slider-response,34,121333,0.0-34.0,30,"""",<p></p>,50,2021-11-22 11:41:12,176.26.232.213,"Mozilla/5.0 (Macintosh; Intel Mac OS X 10_15_7) AppleWebKit/537.36 (KHTML, like Gecko) Chrome/96.0.4664.45 Safari/537.36",Macintosh,Chrome,96.0.4664.45,OS X,10_15_7,447d70a80c75dce987d9c5508038710f
15,1,"""",1768.8999999761581,survey-text,35,123105,0.0-35.0,"{""Q0"":""asdfasdf""}","""","""","""",2021-11-22 11:41:12,176.26.232.213,"Mozilla/5.0 (Macintosh; Intel Mac OS X 10_15_7) AppleWebKit/537.36 (KHTML, like Gecko) Chrome/96.0.4664.45 Safari/537.36",Macintosh,Chrome,96.0.4664.45,OS X,10_15_7,447d70a80c75dce987d9c5508038710f
15,1,"""",1735.6000000238419,survey-text,36,124844,0.0-36.0,"{""Q0"":""asdfasdf""}","""","""","""",2021-11-22 11:41:12,176.26.232.213,"Mozilla/5.0 (Macintosh; Intel Mac OS X 10_15_7) AppleWebKit/537.36 (KHTML, like Gecko) Chrome/96.0.4664.45 Safari/537.36",Macintosh,Chrome,96.0.4664.45,OS X,10_15_7,447d70a80c75dce987d9c5508038710f
15,1,"""",2128.699999988079,html-slider-response,37,126975,0.0-37.0,16,"""",<p></p>,50,2021-11-22 11:41:12,176.26.232.213,"Mozilla/5.0 (Macintosh; Intel Mac OS X 10_15_7) AppleWebKit/537.36 (KHTML, like Gecko) Chrome/96.0.4664.45 Safari/537.36",Macintosh,Chrome,96.0.4664.45,OS X,10_15_7,447d70a80c75dce987d9c5508038710f
15,1,"[{""page_index"":0,""viewing_time"":1049.300000011921}]",1050.300000011921,instructions,38,128027,0.0-38.0,"""","""","""","""",2021-11-22 11:41:12,176.26.232.213,"Mozilla/5.0 (Macintosh; Intel Mac OS X 10_15_7) AppleWebKit/537.36 (KHTML, like Gecko) Chrome/96.0.4664.45 Safari/537.36",Macintosh,Chrome,96.0.4664.45,OS X,10_15_7,447d70a80c75dce987d9c5508038710f
15,1,"[{""page_index"":0,""viewing_time"":852}]",853,instructions,39,128881,0.0-39.0,"""","""","""","""",2021-11-22 11:41:12,176.26.232.213,"Mozilla/5.0 (Macintosh; Intel Mac OS X 10_15_7) AppleWebKit/537.36 (KHTML, like Gecko) Chrome/96.0.4664.45 Safari/537.36",Macintosh,Chrome,96.0.4664.45,OS X,10_15_7,447d70a80c75dce987d9c5508038710f
15,1,"""",3023.599999964237,survey-multi-select,40,131928,0.0-40.0,"{""Colors"":[""Music theory (Junior/Senior upper-level courses, Aural)""]}",[0],"""","""",2021-11-22 11:41:12,176.26.232.213,"Mozilla/5.0 (Macintosh; Intel Mac OS X 10_15_7) AppleWebKit/537.36 (KHTML, like Gecko) Chrome/96.0.4664.45 Safari/537.36",Macintosh,Chrome,96.0.4664.45,OS X,10_15_7,447d70a80c75dce987d9c5508038710f
15,1,"""",1109,survey-text,41,133043,0.0-41.0,"{""Q0"":""asdf""}","""","""","""",2021-11-22 11:41:12,176.26.232.213,"Mozilla/5.0 (Macintosh; Intel Mac OS X 10_15_7) AppleWebKit/537.36 (KHTML, like Gecko) Chrome/96.0.4664.45 Safari/537.36",Macintosh,Chrome,96.0.4664.45,OS X,10_15_7,447d70a80c75dce987d9c5508038710f
15,1,"""",2236.199999988079,survey-multi-select,42,135287,0.0-42.0,"{""Colors"":[""No Response""]}",[0],"""","""",2021-11-22 11:41:12,176.26.232.213,"Mozilla/5.0 (Macintosh; Intel Mac OS X 10_15_7) AppleWebKit/537.36 (KHTML, like Gecko) Chrome/96.0.4664.45 Safari/537.36",Macintosh,Chrome,96.0.4664.45,OS X,10_15_7,447d70a80c75dce987d9c5508038710f
15,1,"""",1127.199999988079,survey-text,43,136418,0.0-43.0,"{""Q0"":""asdf""}","""","""","""",2021-11-22 11:41:12,176.26.232.213,"Mozilla/5.0 (Macintosh; Intel Mac OS X 10_15_7) AppleWebKit/537.36 (KHTML, like Gecko) Chrome/96.0.4664.45 Safari/537.36",Macintosh,Chrome,96.0.4664.45,OS X,10_15_7,447d70a80c75dce987d9c5508038710f
15,1,"""",1990.300000011921,survey-multi-select,44,138412,0.0-44.0,"{""Colors"":[""Conservatory-style professional music school (within a university)""]}",[0],"""","""",2021-11-22 11:41:12,176.26.232.213,"Mozilla/5.0 (Macintosh; Intel Mac OS X 10_15_7) AppleWebKit/537.36 (KHTML, like Gecko) Chrome/96.0.4664.45 Safari/537.36",Macintosh,Chrome,96.0.4664.45,OS X,10_15_7,447d70a80c75dce987d9c5508038710f
15,1,"""",2282.699999988079,survey-multi-choice,45,140700,0.0-45.0,"{""Colors"":""Graduate Student / Teaching Assistant""}",[0],"""","""",2021-11-22 11:41:12,176.26.232.213,"Mozilla/5.0 (Macintosh; Intel Mac OS X 10_15_7) AppleWebKit/537.36 (KHTML, like Gecko) Chrome/96.0.4664.45 Safari/537.36",Macintosh,Chrome,96.0.4664.45,OS X,10_15_7,447d70a80c75dce987d9c5508038710f
15,1,"""",2518.5,html-slider-response,46,143221,0.0-46.0,83,"""",<p></p>,50,2021-11-22 11:41:12,176.26.232.213,"Mozilla/5.0 (Macintosh; Intel Mac OS X 10_15_7) AppleWebKit/537.36 (KHTML, like Gecko) Chrome/96.0.4664.45 Safari/537.36",Macintosh,Chrome,96.0.4664.45,OS X,10_15_7,447d70a80c75dce987d9c5508038710f
15,1,"""",2653.5,html-slider-response,47,145877,0.0-47.0,20,"""",<p></p>,50,2021-11-22 11:41:12,176.26.232.213,"Mozilla/5.0 (Macintosh; Intel Mac OS X 10_15_7) AppleWebKit/537.36 (KHTML, like Gecko) Chrome/96.0.4664.45 Safari/537.36",Macintosh,Chrome,96.0.4664.45,OS X,10_15_7,447d70a80c75dce987d9c5508038710f
15,1,"[{""page_index"":0,""viewing_time"":1008.5}]",1009.1999999880791,instructions,48,146890,0.0-48.0,"""","""","""","""",2021-11-22 11:41:12,176.26.232.213,"Mozilla/5.0 (Macintosh; Intel Mac OS X 10_15_7) AppleWebKit/537.36 (KHTML, like Gecko) Chrome/96.0.4664.45 Safari/537.36",Macintosh,Chrome,96.0.4664.45,OS X,10_15_7,447d70a80c75dce987d9c5508038710f
15,1,"""",1671.199999988079,survey-text,49,148565,0.0-49.0,"{""Q0"":""asdf""}","""","""","""",2021-11-22 11:41:12,176.26.232.213,"Mozilla/5.0 (Macintosh; Intel Mac OS X 10_15_7) AppleWebKit/537.36 (KHTML, like Gecko) Chrome/96.0.4664.45 Safari/537.36",Macintosh,Chrome,96.0.4664.45,OS X,10_15_7,447d70a80c75dce987d9c5508038710f
